time,seconds_elapsed,z,y,x
1782986245153346600,0.0733466796875,0.7365215464025735,0.20250000989735126,-0.11344561578556894
1782986245163421700,0.083421630859375,0.7012707848012447,0.2322738013923168,-0.08578172911666333
1782986245173495600,0.09349560546875,0.6428337934017181,0.21763152805566788,-0.08279551638010889
1782986245183569400,0.1035693359375,0.45851066070795055,0.15475743099153041,-0.028812362584285437
1782986245193644500,0.11364453125,0.2957365119993686,0.22550036173462867,-0.015654592184349895
1782986245203718400,0.123718505859375,0.15170155055224896,0.1768394989401102,-0.11013897545561194
1782986245213792500,0.13379248046875,-0.25258710610270496,0.2508165892988443,-0.1241197892088443
1782986245223867600,0.14386767578125,-0.7212059038490056,0.43428515098989007,-0.25641101177241654
1782986245233941500,0.15394140625,-1.0818401276946068,0.4389268393158912,-0.37468879695478824
1782986245244015400,0.164015380859375,-1.2441647790700197,0.31534020713567734,-0.2906885444274172
1782986245254090500,0.174090576171875,-0.9082645989865064,0.30744740805923937,-0.1686702210098505
1782986245264164400,0.184164306640625,-0.46048926730453965,0.2884673977792263,-0.12627915919981897
1782986245274238500,0.194238525390625,-0.15158289260864258,0.294240135961771,-0.10298245476447045
1782986245284313300,0.204313232421875,0.07077215683758259,0.4615332233995199,0.02209660793058574
1782986245294387500,0.214387451171875,0.3070323975175619,0.6717009914457798,0.4491138137441128
1782986245304461600,0.224461669921875,0.5794570075124502,0.6214437993705272,0.5432085401106626
1782986245314536400,0.234536376953125,0.7087164246320724,0.40576866607964035,0.3478667314048856
1782986245324610600,0.244610595703125,0.6395861897826194,0.26768530651330946,0.16128785567358137
1782986245334684700,0.2546845703125,0.4807447043478489,0.19639877041280268,0.05183920056968927
1782986245344759600,0.264759521484375,0.28618191719055175,0.2043769096851349,-0.023636165522783994
1782986245354833700,0.274833740234375,0.19796470455527304,0.17104513344764707,-0.13327895495928824
1782986245364908500,0.284908447265625,0.2475233929723501,0.07136193942427635,-0.2067331904876977
1782986245374982700,0.294982666015625,0.36053836225569247,-0.06560147620141506,-0.19028554822951554
1782986245385056500,0.305056396484375,0.3844797943353653,-0.189374570864439,-0.10572335097044706
1782986245395131600,0.315131591796875,0.44200200897753233,-0.21499533433318138,-0.08652911341786385
1782986245405205500,0.32520556640625,0.4563005834430456,-0.18277853360027074,-0.06069017715379595
1782986245415279600,0.335279541015625,0.3611708149403333,-0.24866671778857707,0.03902034326791763
1782986245425354500,0.3453544921875,0.3832371007978916,-0.2950935379207134,0.10757665068693459
1782986245435428600,0.3554287109375,0.4826227731794119,-0.34102234540283677,0.14142382910065351
1782986245445502500,0.36550244140625,0.45456864508390427,-0.4089610323801636,-0.0032404432259500026
1782986245455577600,0.37557763671875,0.12004735213816166,-0.44511341899633405,-0.1753745409540832
1782986245465651500,0.3856513671875,-0.5080541515558957,-0.43562049124687907,-0.3853510242119431
1782986245475725600,0.3957255859375,-0.8332721941053867,-0.4577621804282069,-0.505205045735091
1782986245485800400,0.405800537109375,-0.7157330253958701,-0.4764379470646381,-0.32180311953946944
1782986245495874600,0.41587451171875,-0.6266086347877979,-0.407587698200345,-0.18195180045254528
1782986245505948400,0.425948486328125,-0.5449520958423614,-0.35636429144144055,-0.15851678352504966
1782986245516023600,0.4360234375,-0.4357137224882841,-0.26593554023653265,-0.03533982812426984
1782986245526097700,0.44609765625,-0.4555278455048799,-0.31821751613765953,-0.22972835469320416
1782986245536171500,0.456171630859375,-0.46403146995604033,-0.3141907448396086,-0.38244361233264207
1782986245546246700,0.46624658203125,-0.37000644782483577,-0.22527269045859574,-0.3412366457406431
1782986245556320500,0.476320556640625,-0.22461656463742255,-0.16001783573776482,-0.2513142366226762
1782986245566394600,0.48639453125,-0.07190905191302299,-0.09511778580397368,-0.168209106304124
1782986245576469500,0.496469482421875,-0.006547814208269119,-0.062492112009227274,-0.12611563920117913
1782986245586543600,0.506543701171875,-0.0465115758061409,-0.05010960029810667,-0.11171667310111225
1782986245596617500,0.516617431640625,-0.09823299521505832,-0.01108516537696123,-0.07061397060118615
1782986245606692600,0.526692626953125,-0.13832418258488177,0.02127279739230871,-0.06187858322076499
1782986245616766500,0.536766357421875,-0.19775193858742712,0.13651976351141928,-0.10810147827863692
1782986245626840600,0.546840576171875,-0.22168694092631339,0.1879372315376997,-0.1341772920385003
1782986245636915500,0.55691552734375,-0.2057528742134571,0.20694880599975585,-0.12540157264769078
1782986245646989300,0.5669892578125,-0.0893500160574913,0.22268150492161512,-0.16157624416090546
1782986245657063400,0.5770634765625,0.05643266583979129,0.22857933078855275,-0.12620572863742707
1782986245667138300,0.58713818359375,0.061631403526663776,0.21992811456024647,-0.053880643269419666
1782986245677212400,0.59721240234375,-0.04533317967653274,0.25404461143463847,-0.0785438868176192
1782986245687286300,0.607286376953125,-0.12087561965584755,0.27902035499811173,-0.16197649552486837
1782986245697361400,0.617361328125,-0.09665946228802204,0.25017624556869267,-0.13429565772116184
1782986245707435300,0.627435302734375,-0.0174544081479311,0.24912030677497385,-0.14039463218338788
1782986245717510400,0.637510498046875,0.05766776059269905,0.2382935000732541,-0.09721190853901207
1782986245727584300,0.647584228515625,0.18178104699552058,0.24413287375122308,-0.06929002852104604
1782986245737658400,0.657658447265625,0.22104045971632003,0.2394944002956152,-0.05745287573300302
1782986245747733200,0.667733154296875,0.2290922487467527,0.22088556141555307,-0.04670563707351684
1782986245757807400,0.677807373046875,0.2389578092008829,0.18554858283549547,-0.00924304464161396
1782986245767881500,0.687881591796875,0.16105156269967555,0.18261515973210335,0.007983034643158316
1782986245777956600,0.69795654296875,0.04595335740149021,0.21049042412936686,0.061292307765409344
1782986245788030500,0.708030517578125,-0.11097966406345366,0.22856647130697963,0.013707330574095249
1782986245798104300,0.718104248046875,-0.16787819384932517,0.13814531888663767,-0.09756335232518613
1782986245808179500,0.728179443359375,-0.17488076608777045,0.06415215417593717,-0.039661417650431394
1782986245818253300,0.73825341796875,-0.147477210855484,0.10939327165484428,0.036754444162547584
1782986245828327400,0.748327392578125,-0.1597860728085041,0.1286874624505639,0.0601483984272927
1782986245838402300,0.75840234375,-0.269765619918704,0.10523206032216548,0.06760960115343331
1782986245848476400,0.768476318359375,-0.2273988888323307,0.14546119485795497,0.10243388097099959
1782986245858550300,0.77855029296875,-0.199783152154088,0.11695260099321603,0.15972155620492995
1782986245868625400,0.78862548828125,-0.21563129414916038,0.04188040887415409,0.12916055985502897
1782986245878699300,0.79869921875,-0.18240882350504398,0.060200201679766176,0.08961421995162963
1782986245888773400,0.8087734375,-0.17530863611102104,0.07614742013514042,0.05861030213981867
1782986245898848300,0.81884814453125,-0.1115536645591259,0.052291328251361846,0.00570281475149095
1782986245908922400,0.82892236328125,-0.022850129711627958,0.09353665409237145,-0.06307904505170882
1782986245918996200,0.838996337890625,0.09854863703548908,0.18697014007121324,0.04564845617078244
1782986245929071400,0.8490712890625,0.12629939827024936,0.19498831909298894,0.10874079909548162
1782986245939145200,0.859145263671875,0.11066986746191977,0.14329115734249354,0.0820685538124293
1782986245949220400,0.869220458984375,0.10180267039537429,0.13865560649633407,0.08843019779883325
1782986245959294200,0.879294189453125,0.09272095379531382,0.1058870170995593,0.1294409111663699
1782986245969368600,0.88936865234375,0.05392506693303585,0.09411562302410602,0.133140934728086
1782986245979443200,0.899443115234375,-0.011917232286930084,0.07578034038841724,0.10186631021611392
1782986245989517600,0.909517578125,-0.1373690738171339,0.10025134930014609,0.06923954044282436
1782986245999591400,0.91959130859375,-0.32562896143794057,0.07524550285935401,0.037966888692229986
1782986246009666600,0.92966650390625,-0.43572424388229847,0.0578051232367754,0.027977482662722465
1782986246019740400,0.939740478515625,-0.4264502195805311,0.05014467161148786,0.03837422738410532
1782986246029814500,0.949814453125,-0.27622458679974077,0.08004442757368087,0.08550510413236916
1782986246039889400,0.959889404296875,-0.12160861010551452,0.1806377221792936,0.163976437170431
1782986246049963500,0.969963623046875,0.015036825612187384,0.22435879048407076,0.1374062640223652
1782986246060037400,0.980037353515625,0.07934475487172603,0.2653334826901555,0.17980740883499383
1782986246070112500,0.990112548828125,0.18402619557380676,0.2725730785548687,0.26241660886276513
1782986246080186400,1.000186279296875,0.23505261845588682,0.2798001071989536,0.20329452127590775
1782986246090260200,1.01026025390625,0.22565935168862342,0.27337825745791194,0.07310779671091586
1782986246100335400,1.02033544921875,0.14933832855224607,0.236583481284976,0.0295054228823632
1782986246110409200,1.0304091796875,-0.031734277912974354,0.22800299220532178,0.006577332563698291
1782986246120483300,1.0404833984375,-0.15236732098460196,0.24415771593153476,-0.03958985025156289
1782986246130558200,1.05055810546875,-0.13934417328238485,0.2651189631566405,-0.04386734490767121
1782986246140632300,1.06063232421875,-0.10374211402535438,0.2889893758267164,0.002930500493943691
1782986246150706200,1.0707060546875,-0.13271861766278742,0.2600491125464439,0.031414836700260636
1782986246160781300,1.08078125,-0.11026245570480823,0.2301262679696083,0.017904343872517346
1782986246170855200,1.090855224609375,-0.04928104051947593,0.20813713900148867,0.012072788174822926
1782986246180929500,1.100929443359375,0.06225742647051811,0.17350041764527557,0.021051117465645072
1782986246191004200,1.111004150390625,0.20222879174053668,0.16081600037813185,0.045856253702566026
1782986246201078500,1.12107861328125,0.3138818250209093,0.156261405813694,0.030775771611742674
1782986246211153200,1.131153076171875,0.3087579061359167,0.14569383457005022,0.019872684803418816
1782986246221227500,1.1412275390625,0.28357144243121146,0.13155834171175956,0.004179148848168552
1782986246231301400,1.15130126953125,0.32923020080029963,0.12032032386064528,-0.03051781479530036
1782986246241376500,1.16137646484375,0.34419863735139367,0.0778060009971261,0.00961279126945883
1782986246251450400,1.171450439453125,0.3433791376620531,0.0250572843670845,0.05213544356990605
1782986246261524500,1.1815244140625,0.2729302214294672,-0.014300035770237444,0.03337609030324966
1782986246271599400,1.191599365234375,0.21682196523845196,-0.03544073121547699,0.019461802447587252
1782986246281673500,1.201673583984375,0.12019114452302455,-0.054662733557820316,-0.0019785335313528777
1782986246291747300,1.211747314453125,-0.14019874428510665,-0.10428776520937681,-0.04789137625936418
1782986246301822500,1.221822509765625,-0.2610363700181246,-0.11115765097886324,-0.1087446715530008
1782986246311896300,1.231896240234375,-0.21178572463691234,-0.0656564212590456,-0.13072232927903532
1782986246321970400,1.241970458984375,-0.13130699729919432,-0.04752162963151931,-0.08515793466251342
1782986246332045300,1.25204541015625,-0.08474106095731258,-0.07805529958307743,-0.090523407218419
1782986246342119400,1.262119384765625,-0.11207096643149853,-0.0896376008272171,-0.14018950153272597
1782986246352193300,1.272193359375,-0.08199380807578563,-0.06641396162807942,-0.11358893324639648
1782986246362268400,1.282268310546875,-0.08778642000257969,-0.021957272525131702,-0.0491396958200261
1782986246372342300,1.29234228515625,-0.0835983206629753,-0.016032558651268482,-0.0021985329575836656
1782986246382416400,1.30241650390625,-0.04836275663077831,-0.019363748900592326,0.017068733298592268
1782986246392491300,1.3124912109375,0.04970657245516777,-0.03690291272252798,0.05744074690379202
1782986246402565400,1.3225654296875,0.09062427377700805,-0.018242343655228612,0.1618336529880762
1782986246412639500,1.332639404296875,0.10175181699097156,-0.008514730367064476,0.18081026573460549
1782986246422714400,1.34271435546875,0.14346739069223402,0.003998421986401081,0.15399411846883593
1782986246432788500,1.35278857421875,0.1829348932057619,0.027884032225608823,0.15369663335960357
1782986246442863400,1.36286328125,0.21033727939426897,0.03599544248878955,0.20845826071463525
1782986246452937500,1.3729375,0.21357436161935328,0.04197539368122816,0.1638373209606856
1782986246463011300,1.38301123046875,0.2306575983673334,0.10552753613740205,0.14579678348787128
1782986246473086500,1.39308642578125,0.18771160608828066,0.06362637673616409,0.1928264648839831
1782986246483160300,1.403160400390625,0.1765390546888113,0.022325229054689404,0.21891546691898256
1782986246493234400,1.413234375,0.19813772303462027,0.0316124050989747,0.20347499240934847
1782986246503309600,1.4233095703125,0.12380699693262576,0.04860445643216371,0.15672303197607398
1782986246513383400,1.433383544921875,-0.039274610289931296,0.056578796312212944,0.14904785770568996
1782986246523457300,1.443457275390625,-0.10672668279409409,0.08965192161351442,0.1166803599230945
1782986246533532400,1.453532470703125,-0.04760229365229606,0.10271247871667145,0.08153685808852315
1782986246543606300,1.463606201171875,0.04654080190062523,0.07421382172405719,0.0648734176551923
1782986246553680400,1.473680419921875,0.09736614925265312,0.02395896773636341,0.08555756497196852
1782986246563755300,1.48375537109375,0.1930816086888313,0.023469722914695738,0.09123524528220295
1782986246573829400,1.493829345703125,0.2222001511454582,0.05529343267679214,0.02798836938291788
1782986246583903200,1.5039033203125,0.2619119838088751,0.02108925751894712,-0.06771912594251334
1782986246593978400,1.513978271484375,0.3288251271307468,-0.010697919625043868,-0.03827463946714997
1782986246604052200,1.52405224609375,0.3566472000360489,-0.012356208226084709,0.012014335985854267
1782986246614126300,1.534126220703125,0.2700660641700029,0.002929331450164318,0.030049905022606252
1782986246624201200,1.544201171875,0.1287502985537052,-0.008962181873619557,0.07188490385245531
1782986246634275800,1.55427587890625,0.03609714929759502,-0.02335544888526201,0.11042590263821184
1782986246644349700,1.564349609375,-0.02222059963643551,-0.048668461579084395,0.08695924846343696
1782986246654424800,1.5744248046875,-0.022732640811800955,-0.024318156437575816,0.06476360060516745
1782986246664498700,1.584498779296875,0.015230302357673644,-0.02174567560106516,0.04230097237378359
1782986246674573800,1.59457373046875,0.009055413115024566,-0.028854338562488556,0.041433541889488695
1782986246684647700,1.604647705078125,0.02019230867922306,-0.026734569929540156,0.013239201605692506
1782986246694722000,1.61472216796875,0.07811784342527389,-0.009545242458581923,-0.029478169549256562
1782986246704796700,1.624796630859375,0.1487713423192501,0.03855038766860962,0.03288483618758618
1782986246714871000,1.63487109375,0.2097656169861555,0.03240004834532738,0.011297858279570937
1782986246724945000,1.64494482421875,0.18289865284860132,-0.0036658290311694145,-0.01753576628845185
1782986246735020000,1.65502001953125,0.16046879437565803,-0.00006312836408615112,0.004438932295516133
1782986246745094000,1.665093994140625,0.15223580355942248,0.02044803700596094,0.016260777916572988
1782986246755168000,1.67516796875,0.14180559495985506,0.025063129585981368,-0.00016538316216319798
1782986246765243000,1.685242919921875,0.1015799675554037,-0.008092705562710762,-0.04516998847145587
1782986246775317000,1.69531689453125,0.09965747506022453,0.003895546133816242,-0.08277166058048606
1782986246785390800,1.705390869140625,0.17375673049390314,0.0045353053420782085,-0.046729273677431044
1782986246795466000,1.715466064453125,0.1989911249935627,0.010230009852349757,-0.018469905333407224
1782986246805539800,1.725539794921875,0.06594926672577858,-0.018910159914195538,0.0032046777928248045
1782986246815614000,1.735614013671875,-0.024416063854098318,-0.05483721334189176,-0.03337046428006142
1782986246825688800,1.745688720703125,0.0429822326362133,-0.056492287072539324,-0.10374273507986218
1782986246835763000,1.755762939453125,0.10434066444039344,-0.05639993261396885,-0.0712940983524546
1782986246845836800,1.7658369140625,0.0923912834495306,-0.0772086196258664,-0.05486757194753736
1782986246855912000,1.775911865234375,0.10321136814951896,-0.11990502105802296,-0.0592708118751645
1782986246865985800,1.78598583984375,0.10192366642653941,-0.13786971681565047,-0.029765644721128044
1782986246876061000,1.79606103515625,0.12672726829349995,-0.15429682774245737,-0.013297325001098214
1782986246886134800,1.806134765625,0.09999591323435306,-0.20653437997996807,-0.027833361484296618
1782986246896208600,1.816208740234375,0.057332245028018945,-0.2533084061145782,-0.025525888259522615
1782986246906283800,1.82628369140625,0.07708323968052863,-0.3070797437906265,-0.014517477913200854
1782986246916357600,1.836357666015625,0.06407996572256087,-0.34178836133927104,0.0007111439440399407
1782986246926432000,1.846431884765625,0.10986907247304915,-0.3768587979376316,-0.047980040923506016
1782986246936507000,1.8565068359375,0.20011749867498874,-0.37673809416741133,-0.07182524608708918
1782986246946581000,1.8665810546875,0.24735738875567911,-0.3734726626306772,-0.07088190082237124
1782986246956654800,1.87665478515625,0.2275853513151407,-0.38755671756267546,-0.10600976669639349
1782986246966730000,1.88672998046875,0.16844868721365927,-0.3799684543907642,-0.11792546461336315
1782986246976803800,1.896803955078125,0.12902268575429915,-0.38105128119140863,-0.08168203871287405
1782986246986878000,1.9068779296875,0.03742927468419075,-0.33079671946465966,-0.05022650467604398
1782986246996952800,1.916952880859375,-0.08491057230532169,-0.33155133722424507,-0.03541252803429961
1782986247007027000,1.92702685546875,-0.225686239695549,-0.2671364404588938,0.1839036651726812
1782986247017100800,1.937100830078125,-0.2841547952771187,0.0008592471778392792,0.2694973974365741
1782986247027176000,1.947176025390625,-0.4136532818496227,0.08443652505278587,-0.03278444455303252
1782986247037249800,1.957249755859375,-0.5268985527575015,0.15274521438628436,0.034607276066020126
1782986247047324000,1.967323974609375,-0.45030689598619933,0.22116642418354748,0.17811222228966653
1782986247057398800,1.977398681640625,-0.34172435619235036,0.23968524669259786,0.23307335427217185
1782986247067473000,1.987472900390625,-0.3023158903896808,0.26043226664513347,0.26672055313438175
1782986247077546800,1.997546630859375,-0.30217151348292826,0.3125175509303808,0.22320143714249133
1782986247087622000,2.007621826171875,-0.24856091932654378,0.3695861765861511,0.14151793712489305
1782986247097695700,2.01769580078125,-0.15298574514389038,0.4219061464101076,0.104800756232813
1782986247107771000,2.02777099609375,-0.08094459128379822,0.4523351869434118,0.1274851009234786
1782986247117844700,2.0378447265625,-0.07140402500033378,0.4485474850982427,0.08062069309167563
1782986247127918800,2.0479189453125,-0.06015022505819797,0.46937955298572775,0.08424882046096026
1782986247137993700,2.05799365234375,-0.008056465205550194,0.5003633047923446,0.05903188855275512
1782986247148067800,2.06806787109375,0.04684066163003445,0.5289458406761288,0.013991189016774297
1782986247158142000,2.078141845703125,0.14617080443203448,0.5018357154324651,-0.021254677213728427
1782986247168216800,2.088216796875,0.23943127193152902,0.4966068748682737,-0.03465352636054158
1782986247178291000,2.098291015625,0.2758060691267252,0.47410570472478863,-0.022806071374192834
1782986247188365000,2.108364990234375,0.23942951836585996,0.44118280154913664,0.01315707628019154
1782986247198440000,2.11843994140625,0.20676234351694583,0.40353608472198244,0.04712700429074466
1782986247208514000,2.12851416015625,0.12756430363953114,0.3664093001157045,0.04230506402701139
1782986247218588000,2.138587890625,0.09586860417127609,0.34933600023984906,0.0682872081540525
1782986247228663000,2.1486630859375,0.16137071165144443,0.3198530083850026,0.08610928057059646
1782986247238737000,2.15873681640625,0.14940204143822192,0.2472013214111328,0.11874028812758623
1782986247248810800,2.168810791015625,0.12317688233554362,0.2046370219260454,0.10923055537380277
1782986247258886000,2.178885986328125,0.0874590877443552,0.22231384065300225,0.06165083887949586
1782986247268959700,2.188959716796875,0.0301420402854681,0.18249211787432432,-0.011987594109401107
1782986247279033900,2.199033935546875,0.0035696751803159714,0.15929653572589159,-0.06082184070944786
1782986247289108700,2.209108642578125,-0.023496610921621322,0.11020867969095706,-0.09959602719657122
1782986247299182800,2.219182861328125,-0.009210895937681197,0.11031681624054908,-0.08478716512136161
1782986247309258000,2.229258056640625,0.010718962413072585,0.11168313615769147,-0.07101546407416462
1782986247319331800,2.239331787109375,0.06858604497015476,0.10221884998083114,-0.12118337043076753
1782986247329405700,2.24940576171875,0.07912555916309356,0.07769114244580268,-0.12171835409030317
1782986247339480800,2.259480712890625,0.01899111619591713,0.056874272127449506,-0.05744995312355458
1782986247349554700,2.2695546875,0.04451367998719215,0.06693126350045203,-0.023963790041953325
1782986247359628800,2.27962890625,0.10200549949109554,0.06121493168026208,-0.040425753086432814
1782986247369703700,2.28970361328125,0.1733756222218275,0.04897007487416267,-0.03115596656836569
1782986247379777800,2.29977783203125,0.16419804403185845,0.027958851027488706,-0.009029328825697302
1782986247389852000,2.309851806640625,0.07463117035329342,0.0013014379873871802,0.039084713741019364
1782986247399926800,2.3199267578125,-0.02078092222213745,-0.027311493034660815,0.024636720867455005
1782986247410001000,2.3300009765625,-0.08586743463873862,0.007873802115023136,-0.03383629169352352
1782986247420075000,2.340074951171875,-0.08294774779975414,0.03975537954419851,-0.02229461472071707
1782986247430150000,2.35014990234375,-0.026723756274580953,0.05213584542870521,0.037266996794566506
1782986247440224000,2.36022412109375,0.052706923314929,0.018450141187012194,0.04525967604890466
1782986247450297900,2.3702978515625,0.09354162252843379,0.012519874355196952,0.03549596853405237
1782986247460373000,2.380373046875,0.08300503094494342,-0.004496142375469208,0.07899331108555198
1782986247470446800,2.39044677734375,0.0971972224265337,-0.029437106886506078,0.054539837830513714
1782986247480521000,2.40052099609375,0.05675824453234672,-0.03390665351599455,0.09317534649930893
1782986247490595800,2.410595947265625,-0.024787819775938986,-0.05044394681900739,0.12095219202339648
1782986247500670000,2.420669921875,-0.07067687976956367,-0.04567892437428236,0.14035451936870813
1782986247510744800,2.430744873046875,-0.07732932339608668,-0.0238265735283494,0.12814561065882443
1782986247520819000,2.44081884765625,-0.089703067278862,-0.033390520687401296,0.15062968353703618
1782986247530892800,2.450892822265625,-0.1036585273951292,-0.05051408944576979,0.1868808543525636
1782986247540968000,2.460968017578125,-0.12809329594969748,-0.05081628726273775,0.18113821904733776
1782986247551041800,2.471041748046875,-0.15529752921760082,-0.03483487427681684,0.209308666998893
1782986247561116000,2.481115966796875,-0.12755495128929614,-0.021748013688623904,0.20420235683582721
1782986247571190800,2.491190673828125,-0.09017711453139782,-0.019445874226093292,0.23511808490753172
1782986247581265000,2.501264892578125,-0.0685796152293682,-0.045944297312200066,0.24988836853802202
1782986247591338800,2.5113388671875,-0.07336918759346008,-0.019022095856070516,0.23595921190679073
1782986247601414000,2.521413818359375,-0.05596680189371109,-0.025451544381678102,0.20336568681597708
1782986247611487700,2.53148779296875,-0.04205985709428787,-0.012367314141988753,0.20501316176205872
1782986247621561900,2.541561767578125,-0.016746552139520643,0.012866495835781097,0.17974406127519904
1782986247631636700,2.55163671875,0.009274608823657035,0.02036182002723217,0.1482015065420419
1782986247641710800,2.5617109375,0.007843699237704277,0.04714022909849882,0.11760485435687004
1782986247651785000,2.571784912109375,-0.02439385202229023,0.06882219181358813,0.09475428625382483
1782986247661860000,2.581860107421875,-0.030469957065582275,0.08252601525634527,0.11499540251083672
1782986247671934000,2.591933837890625,0.018891162952780722,0.09645049571245908,0.09290551658198237
1782986247682007800,2.6020078125,0.08437573477625847,0.08465104458630085,0.07606171461306512
1782986247692083000,2.6120830078125,0.14187632210850715,0.10268325262218714,0.06087671270184219
1782986247702156800,2.62215673828125,0.15820669466257095,0.13340104696899652,0.04068053156509995
1782986247712231000,2.63223095703125,0.14653554609119893,0.1485135681658983,-0.001479497968032956
1782986247722305800,2.642305908203125,0.17026596576869488,0.17226619967520235,-0.03074307491853833
1782986247732380000,2.6523798828125,0.19312369426488876,0.19141075286716222,-0.03200673817880451
1782986247742454800,2.662454833984375,0.16233984894454478,0.17849048101752996,-0.02451901277191937
1782986247752529000,2.67252880859375,0.13296353233456612,0.1925029320180416,-0.0428721963904798
1782986247762602800,2.682602783203125,0.12896715617477894,0.23804537053108213,-0.04206972090117633
1782986247772678000,2.692677978515625,0.09530103341639042,0.2506657826513052,0.010874079909548163
1782986247782751700,2.702751708984375,0.056044543305039406,0.24391747743487358,0.02842003879845142
1782986247792825900,2.712825927734375,0.07740706480741501,0.20979279725402591,0.07076791905388236
1782986247802900700,2.722900634765625,0.19185235915482043,0.1988292124301195,0.10392696907296776
1782986247812974800,2.732974853515625,0.3409130398094654,0.19416881940364836,0.12050327921211719
1782986247823048700,2.743048583984375,0.42845103800892825,0.14821838461160658,0.1216273878712207
1782986247833123800,2.753123779296875,0.44749826830625533,0.12097265028953552,0.0422247653324157
1782986247843197700,2.76319775390625,0.3749900814563036,0.09327887993901968,-0.017290815084055066
1782986247853272000,2.77327197265625,0.28756606502532955,0.10514759690910577,-0.07462284091636538
1782986247863346700,2.7833466796875,0.21301906582415103,0.06094166769683361,-0.08901501194946468
1782986247873421000,2.793421142578125,0.12009937458634376,0.038516777659952636,-0.08196122098043561
1782986247883495000,2.803494873046875,0.026169629523158072,-0.013166940087080001,-0.07086385370902716
1782986247893570000,2.813570068359375,-0.004095744881033897,-0.0438186834603548,-0.020564064601063727
1782986247903644000,2.823643798828125,0.0030465280890464783,-0.0802674226745963,0.031930385006964206
1782986247913719000,2.833718994140625,0.01141454346179962,-0.10770458791553973,0.07370331491865217
1782986247923793000,2.84379296875,0.018783026403188706,-0.14792173975259065,0.10600618649981915
1782986247933867000,2.853866943359375,-0.007687047371268272,-0.17148030999451874,0.0823243552044034
1782986247943942000,2.86394189453125,-0.07526186947226524,-0.15382073466330765,0.13243877780809998
1782986247954016000,2.87401611328125,-0.22791619070470331,-0.1466644331678748,0.12176526197195052
1782986247964089900,2.88408984375,-0.32077275357842444,-0.1447930863380432,0.0978987217593938
1782986247974165000,2.8941650390625,-0.24070552965104577,-0.13495938232690094,0.10823862172700464
1782986247984238800,2.90423876953125,-0.1863116761624813,-0.08235007416754961,0.14902904340736567
1782986247994312700,2.914312744140625,-0.18657003483772278,-0.10119184502065182,0.11267952678389846
1782986248004387800,2.924387939453125,-0.14126082055866718,-0.09547317511290311,0.08138495546244084
1782986248014461700,2.934461669921875,-0.0873807618111372,-0.08897416848242283,0.07735635753348469
1782986248024535800,2.944535888671875,-0.10873510000705719,-0.07753507510125636,0.07642645627222955
1782986248034611000,2.95461083984375,-0.16628011100292206,-0.06295885273814202,0.040731531099975106
1782986248044684800,2.964684814453125,-0.15554712006449697,-0.013591302978992461,-0.018554989800974725
1782986248054759000,2.974759033203125,-0.08476677992045879,-0.00032587095350027084,-0.023319354658573866
1782986248064833800,2.984833740234375,-0.014033786049485205,-0.010110767386853695,0.011413958939909935
1782986248074908000,2.994907958984375,-0.021074352210760115,-0.010166589227318763,0.03028780543170869
1782986248084982000,3.00498193359375,0.007920271605253219,0.02577712307423353,0.026704320921748875
1782986248095057000,3.015056884765625,0.014720014747977257,0.058039516514539716,0.03592106207832694
1782986248105131000,3.025131103515625,0.032920272827148434,0.060686816152930256,0.020872472963109612
1782986248115206000,3.035205810546875,0.06911094562709331,0.048537236414849756,0.032288185468688606
1782986248125280000,3.045280029296875,0.08273264374434948,0.03777648068666458,0.09663973467424511
1782986248135353900,3.055353759765625,0.12594810061454773,0.03785539114177227,0.06749225838407874
1782986248145429000,3.065428955078125,0.08529635675251483,0.051019408619403836,0.0757902041953057
1782986248155502800,3.0755029296875,0.05259586415588855,0.06618862843960523,0.11971388240009545
1782986248165577000,3.085576904296875,0.03239303408265114,0.0916588775217533,0.0952935076970607
1782986248175651800,3.09565185546875,0.023451018214225766,0.10812953532934189,0.023948519407585262
1782986248185726000,3.105725830078125,0.046055064210295676,0.11678601225465536,-0.02785451387017965
1782986248195799800,3.1157998046875,0.026207038924098012,0.0995998996540904,-0.03277794174700975
1782986248205875000,3.125875,0.10070727637410164,0.11041852304935455,-0.04130874646604061
1782986248215948800,3.13594873046875,0.10432195973992348,0.10675152497440576,-0.0023642449133098125
1782986248226023000,3.14602294921875,0.040914194190502164,0.11236878033429383,-0.002053571528941393
1782986248236097800,3.156097900390625,-0.026645430341362953,0.09760609548836946,-0.0527905830103904
1782986248246172000,3.166171875,0.0036181904971599576,0.08312135080099105,-0.03263349177502096
1782986248256246800,3.176246826171875,0.06480360382199286,0.08567921859025955,0.0035852380756288766
1782986248266321000,3.18632080078125,0.10404255827665328,0.07713584665060043,0.024956600471585988
1782986248276394800,3.196394775390625,0.125007604894042,0.08236790208518505,-0.025733795389160513
1782986248286468900,3.20646875,0.131033441054821,0.10646072533428669,-0.08890694846510887
1782986248296543700,3.216543701171875,0.13928338300585746,0.13449088803231715,-0.10414704156443476
1782986248306617900,3.226617919921875,0.16429916631877423,0.1294058398529887,-0.1130389346808195
1782986248316692700,3.236692626953125,0.13962357474565504,0.11418839697688818,-0.13271942138038575
1782986248326766800,3.246766845703125,0.07816051352322101,0.1295610304147005,-0.14093034649528563
1782986248336841000,3.256841064453125,0.03253974907696247,0.15497282730787992,-0.1331128046121448
1782986248346915800,3.266915771484375,0.01727612897157669,0.13157909223884343,-0.07585559758171438
1782986248356990000,3.276989990234375,0.027544425007700917,0.11054331847280263,0.00846183113604784
1782986248367063800,3.287063720703125,0.05634674112200737,0.08814911583513022,0.09748115393444895
1782986248377139000,3.297138916015625,0.05963701483905315,0.1039826447829604,0.11182831678204237
1782986248387212800,3.307212890625,0.017146365112066266,0.11406681642383336,0.11200045847855508
1782986248397287000,3.317286865234375,0.01930091279745102,0.11882453234493731,0.09510163838677108
1782986248407362000,3.327362060546875,0.014524784436821937,0.10888649117648601,0.04088905974924564
1782986248417436000,3.337435791015625,0.003419453054666519,0.10909078157693147,-0.03228241331502795
1782986248427509800,3.347509765625,0.003827449333667755,0.1126709781512618,-0.09741692959181963
1782986248437585000,3.3575849609375,-0.012082651981711387,0.08866232605427503,-0.1027991340868175
1782986248447658800,3.36765869140625,-0.002299509114027023,0.0716188367947936,-0.08709105814956128
1782986248457734000,3.37773388671875,-0.03709551268517971,0.06845481980592012,-0.05617306505553424
1782986248467807700,3.387807861328125,-0.03461538630723953,0.03971621657758951,-0.054043213419988745
1782986248477881900,3.3978818359375,-0.05982756897509098,0.022626842349767685,-0.04536890857703983
1782986248487956700,3.407956787109375,-0.10222644876539706,0.012846914352476596,0.029875863629952072
1782986248498030800,3.41803076171875,-0.09801789115965366,-0.029292145457863804,0.08954831510856748
1782986248508104700,3.428104736328125,-0.07470482011139393,-0.046455169443786144,0.10281893476583064
1782986248518179800,3.438179931640625,-0.03173369339108467,-0.04425736713856458,0.1288750939771533
1782986248528253700,3.448253662109375,-0.013583704194426536,-0.02238338898271322,0.17384462797306477
1782986248538327800,3.458327880859375,-0.011049217280745505,-0.0012196049228310585,0.18709924634359776
1782986248548402700,3.468402587890625,-0.0077770637422800055,0.021673779408633707,0.17763846729807556
1782986248558476800,3.478476806640625,0.03148994776308536,0.050321489483118056,0.1614800172448158
1782986248568551000,3.488551025390625,0.058770168876647946,0.07576105116605758,0.14123444400839508
1782986248578625800,3.498625732421875,0.10164426496326923,0.09646218615025282,0.12003865737505257
1782986248588700000,3.508699951171875,0.180599728256464,0.08446165949404238,0.09020444092974066
1782986248598774000,3.51877392578125,0.20679683030843735,0.08681669818758964,0.07847476710416376
1782986248608849000,3.528848876953125,0.24423545734286306,0.10083031823188066,0.05685637114457786
1782986248618923000,3.538923095703125,0.24878771381974218,0.10265782591998576,0.03340630277842283
1782986248628996900,3.548996826171875,0.22916882111430167,0.07361497904807329,0.006873758227005601
1782986248639072000,3.559072021484375,0.1784375817865133,0.040621056462824344,0.024679464030638337
1782986248649146000,3.56914599609375,0.10260755703747272,0.05229600442647934,0.04338043817356228
1782986248659221000,3.579220947265625,0.04371580760776996,0.04757920503765344,0.053410833800584076
1782986248669295000,3.589295166015625,0.04201601795256137,0.03222206142991781,0.06101889765150845
1782986248679369000,3.599368896484375,0.05718553003370762,0.017262392707169054,0.08749035966545343
1782986248689444000,3.609444091796875,0.0653384413510561,0.03329582814127206,0.1062994703579694
1782986248699518000,3.61951806640625,0.08167524364590645,0.03052724021077156,0.0727266519062221
1782986248709592000,3.629592041015625,0.07327507956922054,-0.011080196940898894,0.06588964549303054
1782986248719667000,3.6396669921875,0.0012076222240924835,-0.04654693938046694,0.09747560097649693
1782986248729741000,3.649740966796875,-0.10065466940402984,-0.03774316293895244,0.11325608456283807
1782986248739815000,3.65981494140625,-0.15697802965044974,0.0104503746047616,0.025167759004235266
1782986248749890000,3.66989013671875,-0.12915946387648583,-0.021012392890453337,-0.02154620750620961
1782986248759964000,3.6799638671875,-0.14554068983495236,-0.036731940069794654,-0.013273761462420224
1782986248770038000,3.6900380859375,-0.13181553134322166,-0.04214695085585117,0.03349946095459163
1782986248780113000,3.70011279296875,-0.11685469357669352,-0.04960837277770042,0.036085751120746135
1782986248790187000,3.71018701171875,-0.08949205487668514,-0.054796881331503386,0.0007645546317100524
1782986248800261000,3.72026123046875,-0.09025719403028487,-0.07661883703917265,0.040024478809162975
1782986248810336000,3.7303359375,-0.05967325519621372,-0.0659264703720808,0.09217968652546406
1782986248820410000,3.74041015625,-0.009055997636914252,-0.06376695425063371,0.13801190176531672
1782986248830485000,3.750485107421875,0.007767126870155334,-0.04802811784893274,0.1208360913630575
1782986248840559000,3.76055908203125,-0.03928337811827659,-0.024252689985930918,0.08738631476908922
1782986248850633200,3.77063330078125,-0.07026712992489338,0.0022270283997058867,0.07281608375534415
1782986248860708000,3.7807080078125,-0.06061375091671943,0.01826484774798155,0.04841361003518104
1782986248870782200,3.7907822265625,-0.01899403880536556,0.05181435838937759,0.008901683858036994
1782986248880856000,3.80085595703125,0.10101181227862835,0.06440320632755756,-0.006636880731210112
1782986248890931200,3.81093115234375,0.2365823122411966,0.088225980463624,0.04260521601736545
1782986248901005000,3.821005126953125,0.26556875275075437,0.09826163678765297,0.05389423340335488
1782986248911079000,3.831078857421875,0.2279787345468998,0.15654139179885387,0.041870179741084576
1782986248921154000,3.841154052734375,0.1289034432888031,0.1970934746786952,0.03529255491644144
1782986248931228000,3.851227783203125,0.035250177079439164,0.21031945147663353,0.04481200534664094
1782986248941302000,3.861302001953125,0.02195113504528999,0.22346242616623638,0.09967851784825324
1782986248951377200,3.871377197265625,0.06993862862288952,0.20700228975266216,0.15372757648713886
1782986248961451000,3.881450927734375,0.21388474274277686,0.21091770963072776,0.19298472418561577
1782986248971526100,3.891526123046875,0.3228881382972002,0.24289982482492922,0.21956819520667195
1782986248981600000,3.90160009765625,0.33400866724848743,0.2502954880341887,0.18918737772926686
1782986248991673900,3.911673828125,0.25966040548980235,0.24250439576655625,0.10550700480602682
1782986249001749000,3.9217490234375,0.13443886558413504,0.22062837178409098,0.017217969043552876
1782986249011822800,3.93182275390625,0.06931026759147643,0.1862760203272104,-0.04911854343414306
1782986249021897000,3.94189697265625,0.02407353402674198,0.17907646421194076,-0.04562682886086404
1782986249031971800,3.951971923828125,-0.010169511836767196,0.17384908495247364,0.012959434816241264
1782986249042046000,3.9620458984375,-0.018567337825894356,0.1329120944082737,-0.02347074582800269
1782986249052120000,3.9721201171875,0.06381926895976066,0.10827741936743258,-0.04178315904475748
1782986249062195000,3.98219482421875,0.1500742416113615,0.07362433139830828,-0.00800911893248558
1782986249072269000,3.99226904296875,0.1434036778062582,0.026225743624567983,0.0264702199049294
1782986249082343200,4.00234326171875,0.13670914860367775,0.009122925393283366,-0.005102437705546617
1782986249092417000,4.0124169921875,0.17996026130914686,0.026831308302283287,0.002399097030982375
1782986249102492200,4.0224921875,0.19058686926364898,0.04175882832109928,0.039615678812563414
1782986249112566000,4.03256591796875,0.19857319184243677,0.026962533466517925,0.028144875118881463
1782986249122641200,4.04264111328125,0.15496727434992788,-0.00800736536681652,0.05517755121216178
1782986249132715000,4.052715087890625,0.0029021511822938917,-0.04449526754766702,0.12619944502711294
1782986249142789000,4.0627890625,-0.07005962465405463,-0.02474018124192953,0.06834829069152475
1782986249152864000,4.072864013671875,-0.11654080532193183,0.005583937612175941,-0.007294394791871309
1782986249162938000,4.082938232421875,-0.20185002155601978,0.03923573958426714,0.05446845309473574
1782986249173012000,4.093011962890625,-0.19383038122951984,0.02581073308289051,0.06803907861188054
1782986249183087000,4.103087158203125,-0.1184849251270294,0.023617899213731287,0.047437896870821714
1782986249193161000,4.113160888671875,-0.02890110031366348,0.02914893759489059,0.07085545120686292
1782986249203235000,4.123235107421875,0.039948564028739926,0.030082419052720067,0.10178330810777843
1782986249213310000,4.13331005859375,0.01648877798616886,0.03251666046231985,0.10725852464847266
1782986249223384000,4.143384033203125,-0.05689268456697464,0.012203940273821353,0.05360818300358951
1782986249233458000,4.1534580078125,-0.11773673710823059,-0.021182488760352135,0.019041238947957752
1782986249243533000,4.163532958984375,-0.15022563278079032,0.007601414914429188,0.06342588572800159
1782986249253607000,4.17360693359375,-0.10266542470455169,0.0330807240858674,0.04845942193828523
1782986249263681000,4.183680908203125,-0.03586100245416164,0.028439620281755923,0.03878821501247585
1782986249273756000,4.193755859375,-0.030363574081659316,0.0309393281430006,0.0822251326136291
1782986249283830000,4.203830078125,-0.037059856849908826,-0.005588613787293434,0.0526454754512757
1782986249293905000,4.21390478515625,-0.00015665186643600462,0.011203823320567607,-0.00007525719329714775
1782986249303979000,4.22397900390625,-0.005819499933719634,0.038292028993368143,0.0026099633026868104
1782986249314053000,4.23405322265625,-0.0038368016839027404,0.029162381598353385,-0.008546367614343763
1782986249324128300,4.244128173828125,0.04328443045318126,0.01734539481550455,-0.017456234778836368
1782986249334202000,4.2542021484375,0.049499651706218714,0.032952129270136354,-0.015152487881109117
1782986249344276000,4.26427587890625,0.04970306532382965,0.02937777791470289,-0.03349405412711203
1782986249354351000,4.27435107421875,0.07124971122145653,0.04300327542424202,-0.04923712831251323
1782986249364425000,4.284425048828125,0.07879062812030314,0.048021688108146186,-0.05650960353352129
1782986249374499000,4.2944990234375,0.07951075908839703,0.03156301299929619,-0.08356902150325476
1782986249384574000,4.304573974609375,0.09113280782103537,0.04093611376136541,-0.08751600556336343
1782986249394648000,4.31464794921875,0.11481821931302547,0.049693128451704975,-0.052552317275106904
1782986249404722000,4.324721923828125,0.053126610031723975,0.05791121395975351,-0.02517367728836834
1782986249414797000,4.334797119140625,-0.050174189966917034,0.04417348824739456,-0.04352349990606308
1782986249424871000,4.344870849609375,-0.02619359492063522,0.06318184783905745,-0.038604602073878044
1782986249434945000,4.354945068359375,-0.0019417817175388335,0.05497194563746452,0.019464725057035684
1782986249445020000,4.36502001953125,0.029973113459348676,0.06747808372825384,0.022140008680894968
1782986249455094000,4.375093994140625,0.06906710648536682,0.05958586917370558,-0.005557561061903834
1782986249465169000,4.3851689453125,0.16087912874221802,0.04068476934880018,0.001396495859697461
1782986249475243000,4.395242919921875,0.21079320646822453,0.03252455150783062,0.032585707110539076
1782986249485316900,4.40531689453125,0.17992986617088316,0.008830079926550388,0.05396196487732231
1782986249495392000,4.41539208984375,0.10905191087126731,0.02046381909698248,0.029287469282746312
1782986249505466000,4.425466064453125,-0.015355390042066572,0.029390637396275995,-0.01865289721749723
1782986249515540200,4.435540283203125,-0.03283610167503357,0.0034641689792275425,-0.020877368333935737
1782986249525615000,4.445614990234375,-0.030486323678493497,0.027768589152395724,0.055183615626767275
1782986249535689200,4.455689208984375,-0.026710896793007848,0.05424275458008051,0.05641469179168343
1782986249545763000,4.46576318359375,-0.015682137778401373,0.07391220842897891,0.0718382516991347
1782986249555838200,4.475838134765625,-0.02364215687215328,0.06537205135971308,0.14250870172791183
1782986249565912000,4.485912109375,0.012308861953020096,0.05518237351775169,0.19233444358333945
1782986249575986200,4.495986083984375,0.08426350657343865,0.04757452886253595,0.19579240201748907
1782986249586061000,4.50606103515625,0.1727694730222225,0.05060790520906448,0.16990955354645848
1782986249596135200,4.51613525390625,0.1977010851830244,0.04517272841781377,0.09159246122203767
1782986249606210000,4.5262099609375,0.12718962510824203,0.08516162445694207,0.042078780990466476
1782986249616284200,4.5362841796875,0.04979483526051044,0.12764292183369397,-0.05503923872001469
1782986249626358000,4.54635791015625,0.05187748675346374,0.09413403546363115,-0.14333799215890466
1782986249636433200,4.55643310546875,0.030231472134590147,0.08136486252248287,-0.07168634907305241
1782986249646506800,4.5665068359375,-0.009262333863973618,0.041511575561761854,-0.019073460717126726
1782986249656580600,4.57658056640625,-0.037305356043577195,0.003302548676729202,-0.04572290964648127
1782986249666655700,4.58665576171875,-0.040355975785851476,0.007945406046509743,-0.05542831110283732
1782986249676729600,4.5967294921875,-0.020579846692085266,0.01809299831241369,-0.08334588027186692
1782986249686803700,4.6068037109375,-0.010126841738820076,0.017083236747980117,-0.0844110983505845
1782986249696878600,4.616878662109375,-0.00291442614197731,0.03555997368097305,-0.06128441671989858
1782986249706952700,4.62695263671875,-0.00026771102547645565,0.06614625060260296,-0.008723989203572273
1782986249717026800,4.63702685546875,-0.027553192836046216,0.06898585794270039,0.01186813244819641
1782986249727101700,4.647101806640625,-0.04654840068519115,0.057491819503903384,0.005186389661952853
1782986249737175800,4.65717578125,-0.028532851523160933,0.06131956109851598,0.05572276400476694
1782986249747250700,4.667250732421875,-0.011553659671545029,0.06923252618014812,0.09152896753177046
1782986249757324800,4.67732470703125,0.04514496362805366,0.06234305892735719,0.11912314996533095
1782986249767399000,4.68739892578125,0.15066870037317276,0.06596884820908308,0.13182174188829957
1782986249777473800,4.697473876953125,0.19055764316916465,0.064900342194736,0.16332586430720983
1782986249787548000,4.7075478515625,0.12869710706174373,0.07408464238643646,0.12958105028942227
1782986249797621800,4.717621826171875,0.05764847137033939,0.08854162228405475,0.10396781254000961
1782986249807697000,4.72769677734375,0.013089783197641373,0.10550532430559396,0.07843838061653077
1782986249817770800,4.737770751953125,-0.06302139658033848,0.09109744424670935,0.01849295741543174
1782986249827844900,4.747844970703125,-0.07514262700676917,0.05500467886328697,0.028852000474929806
1782986249837919700,4.757919677734375,-0.0237502934217453,0.060435471740365024,0.014279139112681149
1782986249847993900,4.767993896484375,0.0163344642072916,0.06575812806785106,-0.00813610631301999
1782986249858067700,4.778067626953125,0.0703098000228405,0.06295417656302452,-0.0297734261687845
1782986249868142800,4.788142822265625,0.12126374219059943,0.0722811000958085,-0.007540551572665572
1782986249878216700,4.798216796875,0.08216916464269161,0.09552636660486459,-0.005776391444355249
1782986249888290800,4.808290771484375,0.04239186552762985,0.06733516812622546,-0.048752121274545784
1782986249898365700,4.81836572265625,0.06251344705820083,0.08406739947944879,-0.0055642099983990185
1782986249908439800,4.828439697265625,0.08993103081583977,0.08263941250294446,0.0028332506645470856
1782986249918514700,4.8385146484375,0.08483341541588306,0.07972761670947075,-0.003570625028386712
1782986249928588800,4.8485888671875,0.08263444406688213,0.0492760720834136,0.007741334841772913
1782986249938662700,4.85866259765625,0.04883855744898319,0.058574938565492625,0.023821897353231907
1782986249948737800,4.86873779296875,0.04704056811630725,0.07752630727291107,0.022309081637486815
1782986249958811600,4.878811767578125,0.028604163193702695,0.05581307263672351,0.0062075494032353155
1782986249968886000,4.888885986328125,0.011666472396254539,0.041160277906060215,0.06546608631871641
1782986249978960600,4.898960693359375,0.021566519641876218,0.03873977276086807,0.08905293280705809
1782986249989035000,4.909034912109375,0.07864274408221245,0.019415186826884746,0.11747275240980087
1782986249999108900,4.91910888671875,0.13462357450127602,-0.00020750527083873748,0.16478278511725364
1782986250009184000,4.92918408203125,0.16218027446866035,-0.01260667585581541,0.1536211935032159
1782986250019257900,4.9392578125,0.1870253773897886,-0.02247808152884245,0.12823701526932418
1782986250029333000,4.9493330078125,0.20055764365792272,-0.02825637266933918,0.12888159678317607
1782986250039406800,4.95940673828125,0.1933621791958809,0.0013955460116267203,0.11973967442847788
1782986250049480700,4.969480712890625,0.16987492062449455,0.0014788403809070586,0.09582133096344768
1782986250059555800,4.979555908203125,0.11391454847157001,0.0016509820774197577,0.047964404962956904
1782986250069629700,4.989629638671875,0.07981295690536498,0.02508651046156883,0.03608765081688761
1782986250079703800,4.999703857421875,0.08945990617275237,0.02338292141407728,0.05493117523565888
1782986250089779000,5.009779052734375,0.07201485037505627,0.009674421796202658,0.07474909764453769
1782986250099852800,5.019852783203125,0.056796822977066036,-0.017969079671800135,0.019249913262575864
1782986250109926700,5.0299267578125,0.06185059923529625,0.009262918385863303,-0.03664009706787765
1782986250120001800,5.040001708984375,0.04304185386896133,-0.0032288989186286922,-0.038711788775399325
1782986250130075600,5.05007568359375,-0.03949263695478439,-0.008209317679703235,0.04296820411086082
1782986250140149800,5.060149658203125,-0.11358663169145583,0.004293897801637649,0.03503974919915199
1782986250150224600,5.070224609375,-0.192006088411808,-0.006021159985661506,-0.011681231573969124
1782986250160298800,5.080298828125,-0.20656126798689364,0.009108312346041201,0.030429332794249055
1782986250170373600,5.09037353515625,-0.11151683968007564,0.022507307623326776,0.14538484168611465
1782986250180447700,5.10044775390625,-0.04614566510319709,0.017546178084611893,0.21735278417952358
1782986250190521600,5.110521484375,-0.0019289222359657287,-0.009105097475647925,0.24845336729884146
1782986250200596700,5.1205966796875,0.07839315323531627,-0.021612404610216615,0.26988683514557776
1782986250210670600,5.130670654296875,0.15014555328190327,0.024159166483581063,0.27710758017934856
1782986250220745000,5.140744873046875,0.1340712013155222,0.05282879612892866,0.21006715721599756
1782986250230819600,5.150819580078125,0.06879822641611098,0.07735036618411541,0.10877214408181607
1782986250240894000,5.16089404296875,0.0373182155251503,0.08061316737234592,0.018562004063650963
1782986250250967800,5.1709677734375,0.04545125309824943,0.09475333640575409,-0.03926262759119272
1782986250261043000,5.18104296875,0.04241349283754825,0.0920160203963518,-0.07105199669227004
1782986250271116800,5.19111669921875,-0.008762567648291588,0.08288082004338503,-0.06563778962381184
1782986250281191000,5.20119091796875,-0.004254734835028648,0.06722323218435049,-0.06243015268892049
1782986250291265800,5.211265869140625,0.09438859474658966,0.043135961893200875,-0.06224770879410207
1782986250301340000,5.22133984375,0.13597674267590046,0.03932838630378246,0.024342779422178863
1782986250311414800,5.231414794921875,0.08088321648538112,0.0429039067029953,0.04652428915724158
1782986250321489000,5.241489013671875,0.038165772265195845,0.05330751955658197,0.023320304506644605
1782986250331562800,5.251562744140625,0.03420212933123112,0.037651100741326805,0.018517726530507206
1782986250341638000,5.261637939453125,0.014400281274318694,0.03753302731961012,0.04839746261797845
1782986250351711700,5.271711669921875,-0.04160743715167045,0.03342909913212061,0.07537358621843158
1782986250361785900,5.281785888671875,-0.028344050952792167,0.04420446790754795,0.05861410153210163
1782986250371860700,5.29186083984375,-0.008732172510027884,0.05874298860877752,0.056306701372563835
1782986250381934800,5.301934814453125,0.008516483932733535,0.05561579649895429,0.058463514080271124
1782986250392008700,5.3120087890625,0.01275660572052002,0.052961190336942666,0.04993417066596448
1782986250402083800,5.322083740234375,0.0043278000712394715,0.05768062007427215,0.03289192351549863
1782986250412157700,5.33215771484375,0.053228901362419125,0.07061755079776048,0.03095233375504613
1782986250422231600,5.3422314453125,0.12159107444882392,0.07541472194641828,0.03235255594179034
1782986250432306700,5.352306640625,0.15332535236179828,0.06647329059988259,0.030281010364741085
1782986250442380800,5.362380859375,0.1658908194243908,0.08247077793776988,0.02957205837778747
1782986250452455700,5.37245556640625,0.09912088396549225,0.10325842216163873,0.014718480378016829
1782986250462529800,5.38252978515625,0.053797641161084174,0.07639818002581596,0.0026309330254793164
1782986250472604000,5.39260400390625,0.024155951613187787,0.05200082087218761,0.006619125878810883
1782986250482678800,5.4026787109375,0.020419103172421453,0.04049538425654173,0.07103241520896554
1782986250492753000,5.4127529296875,0.046720250120759005,0.05152502005398273,0.09645181088671087
1782986250502826800,5.42282666015625,0.03931260421276092,0.06888795052617788,0.07786248042471706
1782986250512902000,5.43290185546875,0.045890813559293746,0.05070230549424887,0.08496259475350379
1782986250522975700,5.442975830078125,-0.015305121159553526,0.03785013044476509,0.09949132471308111
1782986250533049900,5.4530498046875,-0.03224690361022949,0.03557838612049818,0.07350216632336377
1782986250543124700,5.463124755859375,-0.028176293170452116,0.032843700459599494,0.06305332608856261
1782986250553198800,5.47319873046875,0.011193594187498093,0.03390694577693939,0.07549348627105355
1782986250563272700,5.483272705078125,0.003536357432603836,0.02352759058177471,0.05075082081109285
1782986250573347800,5.493347900390625,-0.004007482075691223,0.007385434076189994,-0.01881364073716104
1782986250583421700,5.503421630859375,0.00873626416325569,0.030166297943890093,-0.023555428436771032
1782986250593496800,5.513496826171875,0.057847208812832826,0.03195844205766916,0.01857566726282239
1782986250603570700,5.52357080078125,0.07433657132089137,-0.0015276479586958883,-0.0476956710241735
1782986250613644800,5.533644775390625,0.05643208131790161,0.00991495255380869,-0.0494671376761049
1782986250623719700,5.5437197265625,0.03985270243883133,0.04244301119297743,-0.024066008307412266
1782986250633793800,5.553793701171875,0.004705401211977005,0.04058043219149112,-0.0404391970898956
1782986250643869700,5.56386962890625,-0.048721068549156185,0.029329262597858903,-0.04530285760350525
1782986250653944800,5.57394482421875,-0.03565758883655071,0.031577041524648665,0.010141747047007084
1782986250664018700,5.584018798828125,-0.0035071313381195065,0.04122749792337417,-0.0021635347094386814
1782986250674092800,5.5940927734375,0.04861760817468166,0.02926934910416603,-0.026588074130937455
1782986250684167700,5.604167724609375,0.04538520212471485,0.0417927305907011,0.003155103030055761
1782986250694241800,5.61424169921875,-0.028125439766049382,0.05478723672032356,0.010667524486780166
1782986250704316700,5.624316650390625,-0.08397592180371284,0.04701075749993324,-0.009596899580582977
1782986250714390800,5.634390869140625,-0.04455868817269802,0.06302198110222816,0.010497355551645158
1782986250724464600,5.644464599609375,0.0027227029621601103,0.07236439446508884,-0.000004164718464016914
1782986250734539800,5.654539794921875,0.06583411591351032,0.07758096006959676,-0.02497274788878858
1782986250744613600,5.664613525390625,0.11667232274711131,0.0839884890243411,-0.02960859099589288
1782986250754687500,5.6746875,0.17588497469425202,0.08728343891650438,-0.04988448630534112
1782986250764762600,5.6847626953125,0.13212649698853493,0.09494359828084707,-0.039493294541910286
1782986250774836700,5.694836669921875,0.046696869245171545,0.10064473253190517,-0.039620062726736065
1782986250784910600,5.70491064453125,-0.01532850203514099,0.10364537565261125,0.019886384535208343
1782986250794985700,5.71498583984375,-0.05086392579674721,0.08429887014776467,0.11556764944083987
1782986250805059600,5.7250595703125,-0.025906010150909424,0.11739449954181909,0.17489757109209894
1782986250815133700,5.7351337890625,0.12436463081538676,0.12580869214385748,0.1736058507811278
1782986250825208600,5.74520849609375,0.2995160305380821,0.1060065518260002,0.19193353463225066
1782986250835282700,5.75528271484375,0.36146658301651474,0.08112170141637325,0.20644246391281484
1782986250845357600,5.765357666015625,0.3128828771114349,0.0647545039832592,0.09656528119854628
1782986250855431700,5.775431640625,0.18398820165097712,0.06934007820785046,-0.02584806941859424
1782986250865505800,5.785505859375,-0.020236147820949554,0.07534077992737293,-0.09523658987805246
1782986250875580700,5.79558056640625,-0.1930693337291479,0.07837327949106693,-0.08477934714108705
1782986250885654800,5.80565478515625,-0.21121464675068854,0.07166822889447212,-0.07593355818875133
1782986250895728600,5.815728759765625,-0.0994318496108055,0.05339812044948339,-0.04744374208971858
1782986250905803800,5.8258037109375,0.0008224222987890243,0.03771510588824749,-0.013800196489319204
1782986250915877600,5.835877685546875,0.08337503330111504,0.008783902697265148,0.000035582770034670826
1782986250925951700,5.84595166015625,0.11821253792643546,0.019809154580533502,0.00652399494126439
1782986250936026600,5.856026611328125,0.10896890876293182,0.01965980923771858,0.0337679756976664
1782986250946100700,5.866100830078125,0.07429390122294426,0.0457271474301815,0.0363366571418941
1782986250956175600,5.876175537109375,0.01525485227704048,0.05699526815861463,0.036173210208490486
1782986250966249700,5.886249755859375,-0.014944471153616905,0.06622194618731737,0.0684621263295412
1782986250976323600,5.896323486328125,0.02370411619246006,0.05951368072032928,0.0794444158539176
1782986250986398700,5.906398681640625,0.08911620730161667,0.03574702068567276,0.10249489044323563
1782986250996472600,5.91647265625,0.16050328116714954,0.04535948316156864,0.1570356781218201
1782986251006546700,5.926546630859375,0.1822773060798645,0.06728957541882992,0.13649141419976948
1782986251016621600,5.93662158203125,0.17892741113007068,0.038702655620872974,0.07571699282862246
1782986251026695700,5.94669580078125,0.1248597208559513,0.04827069443315267,0.0576269171256572
1782986251036769500,5.95676953125,0.010075403812527656,0.06268325066715479,0.009630801850184797
1782986251046844700,5.9668447265625,-0.07284194884896278,0.05284311691522598,0.011810191715881227
1782986251056918500,5.97691845703125,-0.06528408081531524,0.05143325011730194,0.028955387784168122
1782986251066992600,5.98699267578125,-0.039331308913230896,0.03135375416278839,0.059237055736035105
1782986251077067500,5.997067626953125,0.010344868403673171,0.013834756346046924,0.09191796684935688
1782986251087141600,6.0071416015625,0.045474633973836893,0.015028934566676616,0.10174677548967301
1782986251097216500,6.017216552734375,0.04705693472921848,0.009658055183291435,0.090064886328578
1782986251107290600,6.02729052734375,0.04830839609503746,0.0287128842651844,0.07226495267860591
1782986251117364700,6.03736474609375,0.024228432327508924,0.022768004386126993,0.12912344271503387
1782986251127439600,6.047439697265625,-0.029821137768030165,0.010736498069763184,0.15459697973281145
1782986251137513700,6.057513671875,-0.06071896485686302,0.01755056199878454,0.14140958137959242
1782986251147587800,6.067587890625,-0.048825697967410084,0.004090191923081875,0.10376491037905215
1782986251157662700,6.077662841796875,0.007135258707404136,0.03496376135349274,0.10135558421500027
1782986251167736800,6.08773681640625,0.047285482788085934,0.030582769790291786,0.09675663905218243
1782986251177810700,6.097810791015625,0.07348959910273552,0.012792553816735743,0.028216917441785335
1782986251187885800,6.1078857421875,0.11446166096031665,0.01861497635990381,0.025012130051106213
1782986251197959700,6.117959716796875,0.10139525863826274,0.01567483125478029,0.01635813734382391
1782986251208033500,6.128033447265625,0.09074702337384223,0.035303076310455796,-0.003547828674688935
1782986251218108700,6.138108642578125,0.04161152880489826,0.02242225968837738,-0.010845073010772466
1782986251228182500,6.1481826171875,0.01797054097652435,0.024517186141014096,-0.03093560181595385
1782986251238257700,6.158257568359375,0.027091420543193814,0.0402022465288639,-0.04528393370732665
1782986251248331500,6.16833154296875,0.059172904458642005,0.05373422053605318,-0.035157384229451416
1782986251258405600,6.178405517578125,0.07567804905772209,0.05305237575173378,-0.023091975643485783
1782986251268480800,6.188480712890625,0.07720365118980407,0.05088467632383108,-0.023245924096181987
1782986251278554600,6.1985546875,0.08758826708197594,0.03567483223229646,-0.04154240909144282
1782986251288628500,6.20862841796875,0.08036591461300849,0.04050824373811483,-0.002702610022202134
1782986251298703600,6.21870361328125,0.06099369014501571,0.04374094204902649,0.04114091561846435
1782986251308777500,6.228777587890625,0.07475450447201729,0.06190612881481647,0.028019129847362635
1782986251318851600,6.2388515625,0.07990589588582515,0.07609773577451706,0.028372473329678176
1782986251328926500,6.248926513671875,0.09453297165334223,0.04379325675815344,0.006089402916282415
1782986251339000600,6.25900048828125,0.1095014082044363,0.0511886277064681,-0.01900894411355257
1782986251349075500,6.269075439453125,0.10696049154996871,0.08508797469884156,0.016968524327129125
1782986251359149600,6.279149658203125,0.09575403788089752,0.09854016146808862,-0.00785210173986852
1782986251369223700,6.2892236328125,0.011366028144955635,0.07594517556130885,-0.05081818695887923
1782986251379298600,6.299298583984375,-0.10059621721506118,0.08972995528578757,-0.038118791318312285
1782986251389372700,6.30937255859375,-0.161768771058321,0.06764847185909748,0.018522402705624698
1782986251399446800,6.31944677734375,-0.15860709215700625,0.05086714066714048,0.11244301461428403
1782986251409521700,6.329521728515625,-0.0942208369642496,0.06471621779948472,0.20900128155015407
1782986251419595800,6.339595703125,0.03824351367652416,0.07413461900800467,0.25864012253135443
1782986251429669600,6.349669677734375,0.1330377666145563,0.08166063059866428,0.25895079591572284
1782986251439744800,6.359744873046875,0.2105851166754961,0.06602174744009971,0.20569193780645728
1782986251449818600,6.369818603515625,0.2229319725513458,0.09364245255440473,0.07585333255939185
1782986251459892700,6.379892822265625,0.19095745614171028,0.12471096003502606,-0.011110519013926385
1782986251469967600,6.389967529296875,0.10680383968353271,0.09670417821258306,-0.1036139576010406
1782986251480041700,6.400041748046875,0.012320552390813826,0.07970978879183531,-0.11722199251912534
1782986251490116600,6.41011669921875,-0.05402385113239288,0.05623159030973911,-0.08982603607140481
1782986251500190700,6.420190673828125,-0.05975625730454921,0.025956571294367313,-0.06937566097788513
1782986251510264600,6.4302646484375,-0.05769464859962463,-0.0023626374781131744,-0.00620966829508543
1782986251520339700,6.440339599609375,-0.02251929032206535,-0.03744856390655041,0.007406696059927344
1782986251530413600,6.45041357421875,-0.0013099135547876358,-0.06998977428823709,0.04605616018883884
1782986251540487700,6.46048779296875,-0.0063648588567972175,-0.06294453195184468,0.08060790667533874
1782986251550562600,6.4705625,0.00610942279100418,-0.04663374088108539,0.08832629903294145
1782986251560636700,6.48063671875,0.024009236618876457,-0.015614040978252888,0.10783391338363289
1782986251570710800,6.490710693359375,0.0010100538253784179,0.009478022441267967,0.07472030994147062
1782986251580785700,6.50078564453125,-0.0021937106519937513,-0.004233692046999931,0.049464215066656464
1782986251590859800,6.51085986328125,-0.010102876341342925,0.002198386827111244,0.0377948200609535
1782986251600934700,6.5209345703125,0.01974748752117157,0.0031359599381685253,0.08694010537154973
1782986251611008800,6.5310087890625,0.0387993939936161,0.0011205284625291825,0.10227781362645327
1782986251621082600,6.54108251953125,0.08698153336048126,0.003471475502848625,0.10988361245505511
1782986251631157800,6.55115771484375,0.11401567075848579,0.0011620295166969298,0.08859108744896947
1782986251641229600,6.5612294921875,0.10954816995561122,0.04671645072847604,0.06180661396309733
1782986251651303700,6.5713037109375,0.0481628501445055,0.04114683390259743,-0.0020027911897748706
1782986251661378600,6.581378662109375,0.008631050223112106,0.028904315184056756,-0.011782573056593536
1782986251671452700,6.59145263671875,0.020337854629755018,0.055201955001056194,-0.014797317767888308
1782986251681526800,6.60152685546875,0.0110842885941267,0.05912906531691551,0.030159210615977643
1782986251691601700,6.6116015625,0.01063245317339897,0.056493163855373854,0.03932765565142035
1782986251701675800,6.62167578125,0.01277531042098999,0.041080490668117996,0.05570939306654036
1782986251711750700,6.631750732421875,-0.0022533318847417832,0.02829553563594818,0.07887399555481969
1782986251721824800,6.64182470703125,-0.030379356172680852,0.05176993472576141,0.10125234303623437
1782986251731898600,6.651898681640625,-0.010553542718291281,0.05727554640471935,0.11916925412937998
1782986251741973800,6.661973876953125,0.029828736552596092,0.07407032160013914,0.10901406307891011
1782986251752047900,6.6720478515625,0.044480362239480015,0.051258770333230494,0.10822773500680923
1782986251762121700,6.682121826171875,0.05122282223701477,0.05270049357414245,0.05266761421784758
1782986251772196900,6.69219677734375,0.04503273542523384,0.059197746638953684,0.035570714270696045
1782986251782270700,6.702270751953125,0.012470774516463279,0.08313479480445385,0.015614917761087416
1782986251792344600,6.712344482421875,0.006364274334907531,0.07654723310768603,-0.003787263453751802
1782986251802419700,6.722419677734375,0.09048632661104201,0.09352467139363288,-0.046122795684263106
1782986251812493600,6.73249365234375,0.11329787787795066,0.09394961880743503,-0.02695076996348798
1782986251822568700,6.742568603515625,0.08370236555933952,0.0674792527720332,-0.0693086601562798
1782986251832642600,6.752642578125,0.08416881402730941,0.06247808348387479,-0.09095577075369655
1782986251842716700,6.762716552734375,0.04506313056349754,0.07676087585836648,-0.09470869354642927
1782986251852791600,6.77279150390625,0.04076631015241146,0.08628390648514032,-0.07451185482256115
1782986251862865700,6.78286572265625,0.009398527464270591,0.08078092515468598,-0.0322428850222379
1782986251872939500,6.792939453125,-0.03874970963299274,0.05919482402950525,0.012922829132899641
1782986251883014700,6.8030146484375,-0.028808745855093,0.06020429333299398,-0.004153612548112869
1782986251893088500,6.813088623046875,-0.013435820156335829,0.034003099627792834,0.009761223296821117
1782986251903162600,6.82316259765625,-0.011036942321062088,0.017708675169944763,0.03540076453126967
1782986251913237500,6.833237548828125,0.019454057532548905,0.0134349433735013,0.03175071759112179
1782986251923311600,6.8433115234375,0.05859247422218322,0.029908231529593467,0.0038427930332720277
1782986251933385700,6.8533857421875,0.0580664045214653,0.05068535435944795,-0.024525953969359398
1782986251943460600,6.863460693359375,0.07457564077377318,0.05196516503691673,0.004633578084781766
1782986251953534700,6.87353466796875,0.08124035935997963,0.09113748399615287,0.02353986554145813
1782986251963609600,6.883609619140625,0.0588812280356884,0.07439940742403268,0.009046279960498213
1782986251973683700,6.89368359375,0.022228198421001433,0.06383388200700282,-0.007168576455116271
1782986251983757800,6.9037578125,0.003167524120211601,0.07675678420513868,-0.008240589600801467
1782986251993832700,6.913832763671875,-0.007311199796199798,0.1105254905551672,0.009081205143406986
1782986252003906800,6.92390673828125,-0.015902502530813215,0.12901304114311932,0.08555398477539419
1782986252013980700,6.933980712890625,-0.04282908790111541,0.11125234352499246,0.17738529625460506
1782986252024055800,6.944055908203125,0.017106033101677895,0.11808072824031114,0.2714288769558072
1782986252034129700,6.954129638671875,0.12172902161478996,0.11130173562467098,0.2768560896363109
1782986252044203800,6.964203857421875,0.2015524999141693,0.10655337205380201,0.23664748643189668
1782986252054278700,6.974278564453125,0.20567337923645973,0.09966565836668013,0.18442527789399027
1782986252064352800,6.984352783203125,0.16311726305782795,0.11826017646044493,0.06064589962065219
1782986252074427600,6.994427734375,0.0928746830523014,0.11609978355616331,-0.08037979700788855
1782986252084501800,7.004501708984375,0.026892683100700376,0.13088935640901325,-0.11385200462937355
1782986252094575600,7.01457568359375,-0.09508183770775794,0.11720423766672611,-0.05622092278525233
1782986252104650800,7.024650634765625,-0.14228899456262586,0.07095160505771636,-0.05806991165280342
1782986252114724600,7.034724609375,-0.10705167696475983,0.03963438351303339,-0.016630451479181647
1782986252124798700,7.044798828125,-0.06839607535600661,0.005559387692809104,0.004887114454433321
1782986252134873600,7.05487353515625,-0.040614334461092944,-0.003473521329462528,0.02382503915838897
1782986252144947700,7.06494775390625,0.02776654332578182,-0.017703998994827268,0.01386997378990054
1782986252155021600,7.075021484375,0.050833530658483506,0.020824176841974257,0.017437457013130188
1782986252165096700,7.0850966796875,0.014057751446962356,-0.00039396775364875793,0.03959383230693638
1782986252175170600,7.095170654296875,-0.02669336113631725,0.01334434248059988,0.06424246280789375
1782986252185245700,7.10524560546875,-0.038792379730939866,0.03680734339356422,0.07247231181897222
1782986252195319600,7.115319580078125,0.020994272711873055,0.04895750765353441,0.06159757432229816
1782986252205393700,7.1253935546875,0.11229892996847629,0.019649872365593908,0.10086327065341175
1782986252215468500,7.135468505859375,0.1604471670657396,0.000725099404156208,0.12585450404696166
1782986252225542700,7.145542724609375,0.20549860719144344,0.02390665302723646,0.07519976402148604
1782986252235616800,7.15561669921875,0.23221476468145846,0.022419921600818633,0.02317950779646635
1782986252245692000,7.16569189453125,0.2262041260898113,0.019193945291638374,0.03124452163465321
1782986252255765800,7.175765869140625,0.16215806263685226,0.02087415346354246,0.07293832189552485
1782986252265839600,7.185839599609375,0.08223346205055714,0.01897854897528887,0.04623202821239829
1782986252275914800,7.195914794921875,-0.02211597021818161,0.023676351402699945,0.007912745885923504
1782986252285988600,7.205988525390625,-0.07210311318039894,0.04945201317220926,0.014488105688244103
1782986252296063700,7.216063720703125,-0.07663783400058746,0.03666910396665334,0.05377360269837081
1782986252306137600,7.2261376953125,-0.06818973912894725,0.02841273227483034,0.09622026715315878
1782986252316211700,7.236211669921875,-0.0048573769032955166,0.04864975687861442,0.14405541971325875
1782986252326286600,7.24628662109375,0.004934533792734146,0.0594280482634902,0.14049509688317774
1782986252336360700,7.256360595703125,0.002889291700720787,0.04880670100599527,0.17891499003991485
1782986252346434600,7.2664345703125,-0.01570025795698166,0.035597383081912994,0.1823022943906486
1782986252356509700,7.276509765625,-0.015945757150650025,0.06441694259196519,0.13652809294834733
1782986252366583600,7.28658349609375,0.015661094990372656,0.08530980075597762,0.154719510133937
1782986252376657700,7.29665771484375,0.03964636621177196,0.06889496478885412,0.14386369653344153
1782986252386732500,7.306732666015625,0.05207447063028812,0.06009995617568493,0.11087817645035683
1782986252396806700,7.316806640625,0.06716565677821636,0.06855769565850496,0.09278663944266737
1782986252406880500,7.326880615234375,0.04879121117591858,0.07370908707231283,0.05622260328568518
1782986252416955600,7.33695556640625,0.048264556953310965,0.07093173131346703,0.05321078118383884
1782986252427029500,7.347029541015625,0.07152794364094733,0.06638561231642962,0.023856676405668256
1782986252437104600,7.357104736328125,0.0790583391457796,0.07182838789224624,0.05159625865928828
1782986252447178500,7.367178466796875,0.08463000179827213,0.05230214190632104,0.09107640145868062
1782986252457252900,7.3772529296875,0.06297989552617073,0.052474868124723434,0.04024572034440935
1782986252467327500,7.387327392578125,0.07493395269215107,0.04961947869360447,0.01866787559092045
1782986252477401900,7.39740185546875,0.08131050198674201,0.03286766585707664,0.03892207052521408
1782986252487475700,7.407475830078125,0.07348667649328708,0.028886195005476473,0.04134951686784625
1782986252497550800,7.41755078125,0.07237842299044132,0.03616349253207445,-0.009515431842207909
1782986252507624700,7.427624755859375,0.10015373414456843,0.03472030798643827,-0.01766951220333576
1782986252517699800,7.437699951171875,0.10714344690144062,0.031154432198405264,-0.04721431724801659
1782986252527773700,7.447773681640625,0.08754501246213912,0.010723638588190079,-0.08295227784439921
1782986252537847800,7.457847900390625,0.04684066163003445,0.029347090515494344,-0.09629077510610222
1782986252547922700,7.467922607421875,0.05564589937627315,0.04012245929092169,-0.10186704086847603
1782986252557996800,7.477996826171875,0.05809387705028057,0.027205110050737856,-0.11108612011261283
1782986252568070700,7.488070556640625,0.06552607287764549,0.006252338393032551,-0.06342486281469464
1782986252578145800,7.498145751953125,0.05875321774184703,0.023669921661913392,-0.05770071301423013
1782986252588219600,7.5082197265625,-0.0003477905243635177,0.04766425297260284,-0.06622559944912791
1782986252598293500,7.51829345703125,-0.06699497638642787,0.08646510827094316,-0.05009396433755755
1782986252608368600,7.52836865234375,-0.09442951127886771,0.10635872626453638,0.018691987118870018
1782986252618442800,7.53844287109375,-0.07759118920266628,0.09579641571789979,0.10064151766151189
1782986252628516600,7.5485166015625,0.011924246549606322,0.09372516240179538,0.14383512802608311
1782986252638591700,7.558591796875,0.12374328404664993,0.09028671238571405,0.15279577552974224
1782986252648665000,7.5686650390625,0.2214157227694988,0.10823854866176844,0.15570019173435867
1782986252658740200,7.578740234375,0.25563363419175145,0.11948182720988988,0.10251520257890225
1782986252668814000,7.58881396484375,0.18730360980927943,0.11245850444436073,-0.01150061431005597
1782986252678888400,7.598888427734375,0.12882277926802635,0.09852993233501911,-0.04100077649541199
1782986252688963000,7.608963134765625,0.035275311520695685,0.07722527849972248,-0.06596702157817781
1782986252699037400,7.619037353515625,-0.08349778289794921,0.07172258943021297,-0.07115932952426374
1782986252709111300,7.629111328125,-0.1394604931384325,0.06193798525780439,-0.06420001190565526
1782986252719186400,7.6391865234375,-0.08756079455316067,0.030813363675773142,-0.03723397130779922
1782986252729260300,7.64926025390625,-0.02207622272968292,-0.00007598784565925598,0.009484159921109675
1782986252739334400,7.65933447265625,0.04162847993969917,-0.003104688017070293,0.026711700510606166
1782986252749409300,7.6694091796875,0.087629183614254,-0.016614450192451478,0.01619768608510494
1782986252759483400,7.6794833984375,0.05774257939457893,-0.023052082024514673,0.02090082227475941
1782986252769558300,7.689558349609375,0.040382279270887375,0.001084288105368614,0.0031363252643495797
1782986252779632400,7.69963232421875,0.00395487510561943,0.024560440760850906,0.010085340684652328
1782986252789706200,7.709706298828125,-0.05821779569089412,0.026707681922614572,0.009515870233625172
1782986252799781400,7.719781494140625,-0.050367666712403295,0.0016536124259233474,0.02168554291166365
1782986252809855200,7.729855224609375,0.04717500815093517,0.0031371289819478987,0.050405806765705344
1782986252819929300,7.739929443359375,0.10604513027071952,-0.02185965736955404,0.07288096568509936
1782986252830004200,7.750004150390625,0.13985738350152968,-0.0596980973765254,0.09605689328499138
1782986252840078300,7.760078369140625,0.1414209795564413,-0.05494213502109051,0.06833915753699839
1782986252850152200,7.770152099609375,0.09519348138868808,-0.03906593597531319,0.04456314515210688
1782986252860227300,7.780227294921875,0.0060690907806158064,-0.02346183186918497,-0.028330460818856953
1782986252870301200,7.79030126953125,-0.03977671459317207,-0.04325169722735882,0.010069631658867002
1782986252880376300,7.800376220703125,-0.03205868756175041,-0.04918459440767765,0.04288052582740783
1782986252890450200,7.8104501953125,-0.028356325912475583,-0.03784311618208885,0.04724010927639901
1782986252900524000,7.82052392578125,0.009895371070504188,-0.028631343461573124,0.07652100268788635
1782986252910599200,7.83059912109375,0.050718964368104934,-0.040703181788325306,0.08358889524750411
1782986252920673000,7.840673095703125,0.08167349008023739,-0.06478197651207447,0.11229418072812258
1782986252930747400,7.850747314453125,0.07913023533821105,-0.05543868636637926,0.12446779892891645
1782986252940822300,7.860822265625,0.03438274659514427,-0.03518734097629785,0.13562427597641943
1782986252950896400,7.870896484375,-0.02716448577940464,-0.016679916644096373,0.13171404373012482
1782986252960970200,7.88097021484375,-0.040351299610733984,0.0007329904496669769,0.06981310254707931
1782986252971045400,7.89104541015625,-0.019488544324040413,0.024363456884026528,0.06694646106958389
1782986252981119200,7.901119140625,-0.0038549218624830245,0.02927840919345617,0.07969437202699482
1782986252991194400,7.9111943359375,-0.006110591834783553,0.008714344592392445,0.038280411620810625
1782986253001268200,7.921268310546875,0.028135376638174055,0.009169979405403136,0.034560002858191725
1782986253011342300,7.93134228515625,0.06586275748610496,0.04627513670176267,0.038944647683203215
1782986253021417200,7.941417236328125,0.09208557850122451,0.051772565074265,0.034605157174170016
1782986253031491300,7.9514912109375,0.07448094822764396,0.05583528446853161,0.002943798366934061
1782986253041565200,7.961565185546875,0.07318564772009849,0.07243599839657544,0.024183862533420322
1782986253051640300,7.971640380859375,0.05439677609801292,0.0753852035909891,0.02139686216339469
1782986253061714200,7.981714111328125,0.018891747474670408,0.08459843761622905,0.0035778584867715833
1782986253071788300,7.991788330078125,-0.019332476979494095,0.0859361159607768,0.012196779880672692
1782986253081863200,8.00186328125,-0.005891980648040771,0.09569149403870106,0.021234438143298028
1782986253091937300,8.011937255859374,0.014087562063336372,0.09191372906565666,0.037651977524161336
1782986253102012200,8.02201220703125,0.04260638506114483,0.0721878688544035,0.015304975029081106
1782986253112086300,8.032086181640626,0.06989245139360427,0.08659750247895717,-0.015029957479983567
1782986253122160000,8.04216015625,0.07833879269957542,0.08899638031423092,-0.0037930356074124573
1782986253132235300,8.0522353515625,0.09059680124819278,0.11243366226404905,-0.00988842987306416
1782986253142309000,8.06230908203125,0.10207330403029918,0.10223667789846658,-0.04653159568086266
1782986253152383200,8.07238330078125,0.1365805537879467,0.10850479838252067,-0.03977233067899942
1782986253162458000,8.0824580078125,0.18181319569945334,0.12547609918862582,-0.023805019283667204
1782986253172532200,8.0925322265625,0.1653185724943876,0.10996668762862681,0.011588000332564114
1782986253182606300,8.1026064453125,0.11318857228457926,0.08337327973544598,-0.01875504241771996
1782986253192681200,8.11268115234375,0.06722644705474376,0.06955635130703448,-0.06797361216023563
1782986253202755300,8.12275537109375,-0.008655600142478943,0.10380582691133022,-0.07512034210972487
1782986253212830200,8.132830322265624,-0.09276654650270938,0.12244476866871118,-0.04510178207345306
1782986253222904300,8.142904296875,-0.08559738552570342,0.12549509615004062,0.013801365533098577
1782986253232978400,8.152978515625,-0.028607670325040815,0.12578618805110453,0.11660970583967864
1782986253243053300,8.16305322265625,0.05242869089543819,0.09732727854698896,0.19327486623860896
1782986253253127400,8.17312744140625,0.17443711397349834,0.12224456992149352,0.1956914989262819
1782986253263201300,8.183201171875,0.2992728694319725,0.1257791737884283,0.14858597581498323
1782986253273276400,8.1932763671875,0.33891046781539913,0.14695377150326966,0.04553966203406453
1782986253283350300,8.203350341796876,0.23181962788403032,0.14175503381639717,-0.038744595066457985
1782986253293424000,8.213424072265624,0.07274258012771606,0.12462795792669057,-0.1307971480809152
1782986253303499300,8.223499267578125,-0.021762334474921225,0.11953238835334777,-0.17641170198209583
1782986253313573400,8.233573486328124,-0.04612286874949932,0.1078042488977313,-0.1232786622095853
1782986253323648300,8.243648193359375,-0.08933598753213882,0.08059358588904142,-0.11944755961410701
1782986253333722400,8.253722412109376,-0.08739479033648967,0.020777122829854486,-0.055836307381838556
1782986253343796200,8.263796142578125,-0.04420622147321701,-0.009234861335158348,-0.044082668158784505
1782986253353871400,8.273871337890625,0.0723176327139139,-0.0065586278632283205,0.0018636019147932528
1782986253363945200,8.2839453125,0.10526420902609825,-0.06983370694369077,0.04780862987935543
1782986253374019000,8.29401904296875,0.03596270926296711,-0.06650105538964271,0.07145385549142956
1782986253384094200,8.30409423828125,-0.02924187657535076,-0.03680997374206781,0.033968832032009955
1782986253394168000,8.31416796875,-0.06086275724172592,-0.015215397049486636,0.05781703287027776
1782986253404242200,8.3242421875,-0.017715104910731316,-0.015693828216195107,0.056119654367864126
1782986253414317000,8.334317138671874,-0.06888999635279178,-0.036566228114068504,0.109456253888458
1782986253424392200,8.34439208984375,-0.07547989613711834,-0.0055050271570682525,0.0873874838128686
1782986253434466300,8.35446630859375,0.007677695021033286,0.004263502663373947,0.07859758976623415
1782986253444540200,8.3645400390625,0.16243512601256369,0.03245060948878527,0.05679821121655404
1782986253454615300,8.374615234375,0.15677636959850788,0.01638765569925308,0.10936894093118607
1782986253464689200,8.384689208984375,0.09375731110572814,-0.03428454691767693,0.10422105664871632
1782986253474764300,8.394764404296875,-0.016994389420747755,-0.03736351597160101,0.0818161134213209
1782986253484838100,8.404838134765624,-0.036470074263215066,-0.022959143044054508,0.12108802029751241
1782986253494912300,8.414912353515625,-0.0043897593915462494,-0.01433072316944599,0.14442228026427328
1782986253504987100,8.424987060546876,0.024384499672055242,-0.011081950506567954,0.1254004766691476
1782986253515061200,8.435061279296875,0.029974867025017737,0.0003457446977496147,0.14707410994730888
1782986253525135400,8.44513525390625,0.017208908954262733,0.025726561930775643,0.12632095251493156
1782986253535210200,8.455210205078124,-0.0138379712164402,0.040808687989413735,0.10742306756041943
1782986253545284400,8.465284423828125,-0.02543371646404266,0.06285276201516389,0.11439466013871133
1782986253555358200,8.475358154296876,0.029058921223878858,0.051665597568452355,0.10934702136032283
1782986253565433300,8.485433349609375,0.06843290023505687,0.05235007270127535,0.09662738664932548
1782986253575507200,8.495507080078125,0.11040566356778145,0.04845949500352144,0.06364931922033429
1782986253585582300,8.505582275390625,0.10273965898454189,0.06770838535279035,0.06653276570215821
1782986253595656200,8.51565625,0.03823065419495106,0.05010960029810667,0.06864077083207666
1782986253605730300,8.525730224609376,0.008901683858036994,0.05964256779700517,-0.010014248209819197
1782986253615805200,8.53580517578125,0.009256488645076751,0.07900456313192844,-0.030164471312984824
1782986253625879300,8.54587939453125,-0.011330372309684754,0.07512626039385795,-0.04603234092183411
1782986253635953200,8.555953125,0.010891980892419814,0.06692103436738252,-0.0649481999244541
1782986253646029000,8.566029052734375,0.05250409421920776,0.0536830748707056,-0.05935542141869664
1782986253656103000,8.57610302734375,0.09279284998774529,0.058250236655771725,-0.05726480581499636
1782986253666178000,8.586177978515625,0.14256605793833732,0.055422319753468036,-0.026969109337776898
1782986253676252000,8.596251953125,0.11055880830287933,0.028835926122963425,-0.015458631220832466
1782986253686326000,8.606325927734375,0.09130465725660324,0.04553279390186071,-0.024511340922117233
1782986253696401000,8.61640087890625,0.08762392291724681,0.04441606483161449,-0.031539778254181146
1782986253706475000,8.62647509765625,0.0948614729553461,0.026681962959468362,-0.002711670111492276
1782986253716548900,8.636548828125,0.056819034808874125,0.026441432201862333,0.0016620879933238028
1782986253726624000,8.6466240234375,0.04718845215439796,0.0279547593742609,-0.026723829339817165
1782986253736697900,8.65669775390625,0.0005962123274803161,-0.0007087327912449836,-0.0009709639240056276
1782986253746771700,8.666771728515625,-0.04344458945095539,-0.02601706930994987,0.027235139862820505
1782986253756846800,8.676846923828125,-0.03088964378237724,-0.020407704995572564,0.04566526117511093
1782986253766920700,8.686920654296875,-0.007936638218164444,0.019541735816001892,0.017536898799613117
1782986253776995800,8.696995849609374,0.04103577474355698,0.013187690614163874,-0.030334274921938777
1782986253787069700,8.707069580078125,-0.02926934910416603,0.020134441012144087,-0.031687223900854586
1782986253797144000,8.71714404296875,-0.17898060262203216,0.017040566650032996,-0.042537703739106654
1782986253807219000,8.727218994140625,-0.02945230445563793,0.016810557286441326,0.03948511123545467
1782986253817293000,8.73729296875,0.09202186561524868,0.03831511760801077,0.07505787133276462
1782986253827367000,8.747366943359374,0.11107143400013446,0.035653497183322905,0.10682349423207342
1782986253837442000,8.757442138671875,0.06570610561966896,0.03347673766613007,0.15773220901861787
1782986253847516000,8.767515869140626,0.09392565340995788,0.09004092093110085,0.17388181817829607
1782986253857590000,8.777590087890625,0.1631722081154585,0.14774199927151202,0.16548581882007418
1782986253867665000,8.787664794921875,0.2347521742045879,0.16189181291610003,0.14075710882022976
1782986253877739000,8.797739013671874,0.26629180632829663,0.1158452242732048,0.0557738366048783
1782986253887814000,8.80781396484375,0.2198994729876518,0.11628624603897332,-0.0552391452062875
1782986253897888000,8.817887939453126,0.15824118145406246,0.10872487087398768,-0.08246149865277111
1782986253907961900,8.8279619140625,0.08480652740895747,0.07979016055166721,-0.10990494750402867
1782986253918037000,8.838037109375,0.029672084686160085,0.04932224931269884,-0.08703625922240317
1782986253928110800,8.84811083984375,-0.004760346269607543,0.028440789325535294,-0.009028744303807616
1782986253938185000,8.85818505859375,-0.03342822234928608,0.0072623922184109685,0.012890899624675512
1782986253948259800,8.868259765625,-0.011014145967364311,0.006616203269362449,0.052869639595970505
1782986253958334000,8.878333984375,-0.03786006731688976,0.02794043858796358,0.12795549491420388
1782986253968407800,8.88840771484375,-0.02222878294289112,0.04862725278586149,0.06134951784536242
1782986253978483000,8.89848291015625,-0.030634207716584205,-0.01855710869282484,0.03468991284817457
1782986253988556800,8.908556884765625,-0.11377192513048648,0.008848200105130672,0.13467245514430104
1782986253998632000,8.9186318359375,-0.08881342496275901,0.07724749033153057,0.0198010443393141
1782986254008705800,8.928705810546875,-0.024293898779153823,0.044640813498198983,-0.007578910821676253
1782986254018780000,8.93877978515625,0.054527124479413026,0.008750584949553013,0.06738412183448672
1782986254028854800,8.948854736328125,0.16751695932149885,0.015237608881294726,0.07811967005617916
1782986254038929000,8.958928955078125,0.27744097685217856,0.018525544510781766,0.0846319014944136
1782986254049003000,8.9690029296875,0.32929332916438575,0.037889001150429244,0.07280643914416432
1782986254059078000,8.979077880859375,0.34431320364177226,0.07129618071168661,0.02465856737308204
1782986254069152000,8.989152099609376,0.30777415579557416,0.06982347781062126,-0.01127688855677843
1782986254079226000,8.99922607421875,0.26428748076856134,0.09750526546239853,-0.04764094516225159
1782986254089301000,9.009301025390625,0.1595335593521595,0.1084530681952834,-0.025805983842536805
1782986254099375000,9.019375,0.05046002117097378,0.10065466940402984,-0.022681860472634433
1782986254109450000,9.029449951171875,-0.06067278762757778,0.07666063035428523,-0.005992518413066863
1782986254119524000,9.039524169921876,-0.0800169550448656,0.04582388580292463,0.008974529898539184
1782986254129598000,9.049597900390625,-0.09612988545596599,0.04496346958130598,0.05920015779174864
1782986254139673000,9.059673095703126,-0.10485796631276607,0.05326105006635189,0.06874569251127541
1782986254149747000,9.069746826171874,-0.0864350053936243,0.06945055284500122,0.061690001846104854
1782986254159820800,9.07982080078125,-0.05149287135004997,0.07065583698153495,0.06932042365930974
1782986254169896000,9.08989599609375,-0.0010153145223855973,0.0687085023060441,0.07678929823525249
1782986254179970000,9.099969970703125,0.020417934128642082,0.052929918415844435,0.07456672681495546
1782986254190044000,9.1100439453125,0.029397359398007392,0.033087446087598796,0.04854505439512431
1782986254200119000,9.120119140625,0.04449555980861187,0.03399754666984081,0.08086443871967494
1782986254210193000,9.13019287109375,0.05294365468025207,0.03493482751995325,0.05888049738332629
1782986254220268000,9.14026806640625,0.04731120175123214,0.0019400281518697738,0.019370982358977197
1782986254230342000,9.150341796875,-0.030876784300804136,0.02061754835397005,0.02017024297788739
1782986254240415700,9.160415771484375,-0.06020049394071102,0.02693827580809593,-0.025283129012212156
1782986254250491000,9.170490966796875,-0.026427403676509857,0.02273848603069782,-0.007776113894209265
1782986254260564700,9.180564697265625,0.04552431833446026,0.0004489128112792969,0.05386069645993411
1782986254270638800,9.190638916015626,0.1107604683548212,-0.0378778952345252,0.060189607220515605
1782986254280713700,9.200713623046875,0.14392039515674113,-0.05534954677820205,0.04473163358680904
1782986254290787800,9.210787841796876,0.155860423797369,-0.036948797690868375,0.04616195865087211
1782986254300863000,9.220863037109375,0.13107903376221655,-0.026220775188505647,0.077004694551602
1782986254310936800,9.230936767578125,0.07288695703446865,-0.05226619381010532,0.09900412571802734
1782986254321011000,9.241010986328124,-0.02723053675293922,-0.06839665987789631,0.1017311395291239
1782986254331085800,9.2510859375,-0.10778583645820618,-0.05748275941461324,0.10426116946339607
1782986254341160000,9.261159912109376,-0.0884130274683237,-0.04160685262978077,0.041043811919540166
1782986254351234000,9.271234130859375,-0.022785832303762434,-0.04130670063942671,-0.015259309256449341
1782986254361309000,9.281308837890625,0.03668459379673004,-0.09128127638101577,-0.039430969895422455
1782986254371383000,9.291383056640624,0.09303542657196522,-0.09425327792912722,-0.03798632404506206
1782986254381457000,9.301456787109375,0.057870005166530604,-0.07991992441117764,-0.058612128770723936
1782986254391532000,9.311531982421876,-0.06657061349451542,-0.11275310347676276,-0.0870411545932293
1782986254401606000,9.32160595703125,-0.19050971237421035,-0.06432488039433956,-0.16239494013264774
1782986254411681000,9.331680908203126,-0.20779519369602203,0.06047141983658075,-0.2030403273191303
1782986254421755000,9.3417548828125,-0.2768552859187126,0.10876169575303793,-0.1867330433797091
1782986254431829000,9.3518291015625,-0.3174760501205921,0.13039806576073168,-0.07962927090153098
1782986254441903900,9.36190380859375,-0.19806056614518164,0.13585720794945955,-0.015662848556041716
1782986254451978000,9.37197802734375,-0.0487900421321392,0.11459171708077191,0.046830724757909774
1782986254462051800,9.3820517578125,0.03993628906905651,0.1451940683543682,0.13101159454919398
1782986254472127000,9.392126953125,0.06913958719968795,0.162082074791193,0.19624781763479113
1782986254482200800,9.402200927734375,0.09963000253140926,0.1513002762749791,0.13727642709761856
1782986254492275000,9.41227490234375,0.13977496591508387,0.17488690356761216,-0.05007584415897727
1782986254502349800,9.422349853515625,0.23334289192855356,0.14671353300660847,-0.03337824572771787
1782986254512424000,9.432423828125,0.2129243732780218,0.11396978579014538,-0.0044470425367355345
1782986254522498800,9.442498779296875,0.18817104029357432,0.07657558241933583,-0.013251330434903503
1782986254532573000,9.452572998046875,0.17449907329380512,0.049340661752223965,0.013455255509167909
1782986254542646800,9.462646728515624,0.09065408439338207,0.05445639733076095,0.0027994214601814744
1782986254552722000,9.472721923828125,0.035111060869693754,0.08507423843443393,0.03411101698167622
1782986254562795800,9.482795654296876,0.06748071407675743,0.058690089377760886,0.002127732743695378
1782986254572870100,9.4928701171875,0.08918518088459967,0.062059858071804044,0.032851080048456785
1782986254582944800,9.50294482421875,0.26793489736020565,0.02425035189837217,0.010962269649654625
1782986254593019100,9.51301904296875,0.2690337985128164,0.08863046961128711,0.06544197479076683
1782986254603093000,9.523093017578125,0.1555026964008808,0.07925298493504523,0.1292619013376534
1782986254613168000,9.533168212890626,0.056475335937738416,0.023874796584248542,0.1622676604911685
1782986254623242000,9.543241943359375,-0.010544190368056297,0.08440759121924639,0.16748261866047978
1782986254633317000,9.553317138671876,-0.07920563866198062,0.12125614340603351,0.11479045452326536
1782986254643390700,9.563390625,-0.08796937535405158,0.09035685501247644,0.11200250430516898
1782986254653464600,9.573464599609375,-0.10160860912799835,0.05509527975618839,0.15597491702251134
1782986254663539700,9.583539794921874,-0.07507774507701397,0.005637713626027107,0.16042305553779004
1782986254673613600,9.593613525390625,-0.012526304095983504,0.0015799626678228377,0.09042414809502661
1782986254683687700,9.603687744140625,0.08263269050121307,-0.009897709158062934,0.042606531191617246
1782986254693762600,9.613762451171874,0.18514672403633595,0.019471885450184342,0.02175217840708792
1782986254703836700,9.623836669921875,0.24323007969260213,0.03752192140370607,0.05440583618730306
1782986254713911600,9.63391162109375,0.21026479867994785,0.03220072638094425,0.0809708217035979
1782986254723985700,9.643985595703125,0.20288871695399283,0.018989654891192913,0.053722237837314606
1782986254734059500,9.6540595703125,0.16013620142042637,0.0328086291462183,0.054671647516638035
1782986254744134700,9.664134765625,0.06319266149401664,0.05929594631642103,0.07186324000991881
1782986254754208500,9.67420849609375,-0.0004243628919124603,0.048126902048289774,0.04676321247965097
1782986254764282600,9.68428271484375,-0.059843351066112514,0.06683861678093671,0.056286023910716174
1782986254774357500,9.694357421875,-0.06383446652889252,0.07591156555265188,0.00880984085611999
1782986254784431600,9.704431640625,-0.022850714233517644,0.026762626980245112,-0.008025412480160593
1782986254794505500,9.71450537109375,0.017441548666357994,0.022501754665374754,-0.013452990486845373
1782986254804580600,9.72458056640625,0.034006314498186106,0.007443301743268967,-0.0118457744859159
1782986254814654500,9.734654541015624,0.05402852730751037,0.03926613472253084,0.00137508774548769
1782986254824729600,9.7447294921875,0.01901157446205616,0.03880582373440265,0.0465480353590101
1782986254834803500,9.754803466796876,-0.12822539789676665,0.06171674372255802,0.03218523655086756
1782986254844877800,9.7648779296875,-0.239058346965909,0.053903439623117444,-0.044331089961901306
1782986254854952400,9.774952392578125,-0.1713093373417854,0.03611965339034796,-0.09021693508513272
1782986254865026800,9.78502685546875,-0.053933834761381146,0.012093465636670589,-0.059532823812216515
1782986254875100700,9.7951005859375,0.05226619381010532,0.02434329087883234,-0.018336524744704364
1782986254885175800,9.80517578125,0.17314181346595287,0.03822977741211653,-0.010552081413567066
1782986254895249700,9.815249755859375,0.24004443539381026,0.03836450970768928,-0.02770063848271966
1782986254905323500,9.825323486328125,0.2531014853656292,0.049775253777205944,0.01722922108992934
1782986254915398700,9.835398681640624,0.2357774255990982,0.01457476105839014,0.025012349246814846
1782986254925472800,9.84547265625,0.13875614426136015,-0.0031800913408398628,0.02277991401962936
1782986254935547600,9.855547607421874,0.022872926065325736,0.003925064489245415,0.11427987465262412
1782986254945621800,9.865621826171875,-0.04621346964240074,0.08076543532460928,0.11483940823152661
1782986254955695600,9.875695556640625,-0.02417465631365776,0.06737345430999994,0.018683876877650617
1782986254965770800,9.885770751953125,0.04884323362410068,0.049291854174435136,-0.010550473978370428
1782986254975844600,9.8958447265625,0.07939093210101127,0.06061930387467145,0.04881203476823866
1782986254985918500,9.90591845703125,0.05775310078859329,0.05682283420115709,0.03833930220119655
1782986254995993600,9.91599365234375,0.0757774177789688,0.034898587162792684,-0.0036916941247880455
1782986255006067500,9.9260673828125,0.07169628594517707,0.05510112497508526,0.01264123571254313
1782986255016142600,9.936142578125,0.0635386984527111,0.0695192341670394,0.030519641426205633
1782986255026216400,9.946216552734375,0.09018997401297092,0.055173313428461546,0.10519267815984785
1782986255036290600,9.95629052734375,0.04330664228498936,0.011434124945104122,0.24064342420026658
1782986255046365700,9.96636572265625,-0.08581248958110808,0.004890402390062809,0.31380591024048626
1782986255056439600,9.976439453125,-0.11867255665361881,0.08423281917423009,0.2828819988623261
1782986255066513700,9.986513671875,-0.1103816981703043,0.13908201521486044,0.229959460035339
1782986255076588500,9.996588623046875,-0.07188567103743553,0.1390776313006878,0.12339775854460894
1782986255086662700,10.00666259765625,-0.06724047558009624,0.10914046593755483,0.023413060824014245
1782986255096736800,10.01673681640625,-0.06554010140299797,0.08891425498872994,-0.08131864876057952
1782986255106811600,10.026811767578126,-0.026033435922861097,0.10162439121901988,-0.17621625247523187
1782986255116885800,10.0368857421875,0.09173895702064037,0.09234393717646598,-0.1972650683859363
1782986255126959600,10.046959716796875,0.16418869168162345,0.057600832836329934,-0.11368161649852991
1782986255137034800,10.05703466796875,0.18036124332547188,-0.046103871788084505,-0.05511533616352826
1782986255147108600,10.067108642578125,0.09731354228258132,-0.032929040655493735,0.0405667324597016
1782986255157183700,10.077183837890624,-0.0058364510685205455,0.054089317584037774,0.01290047117061913
1782986255167257600,10.087257568359375,-0.010265957948565482,0.06636544631123542,-0.08431647886969149
1782986255177331700,10.097331787109376,-0.003344634252786636,0.04556552712768316,-0.05646963684931397
1782986255187406600,10.107406494140625,-0.00016308160722255705,0.04076923276185989,-0.01679473866280168
1782986255197480700,10.117480712890625,0.03068973729610443,0.06925181540250777,-0.013728081101179122
1782986255207554600,10.127554443359376,0.10240180533230304,0.0989700773179531,0.0007739069819450377
1782986255217629700,10.137629638671875,0.12408581387400626,0.08998948300480843,-0.0176927104158327
1782986255227703600,10.14770361328125,0.1217185002207756,0.04441168091744184,0.018566241847351193
1782986255237778700,10.15777880859375,0.1999444801956415,0.0909074746325612,0.17200806019566953
1782986255247852500,10.1678525390625,0.23340017507374286,0.05699731398522854,0.18591025575473905
1782986255257926700,10.1779267578125,0.2306663661956787,-0.022644962528347967,0.07650923918485641
1782986255268001500,10.18800146484375,0.1377700558334589,0.02720101839751005,0.0310986468905583
1782986255278075600,10.19807568359375,0.12912322351932526,0.0805550074443221,-0.048515974431112406
1782986255288149500,10.2081494140625,-0.013926234021782875,0.025069267065823075,-0.06844955910891294
1782986255298224600,10.218224609375,-0.2230108830064535,0.04517769685387611,-0.01158621023427695
1782986255308298500,10.228298583984374,-0.37458208517730235,0.09642857614159583,-0.05040054606869816
